target;aX;aY;aZ;gX;gY;gZ
0;-0.218;-0.37;2.201;126.343;-1.404;-58.044
0;-0.076;-0.057;2.112;60.791;41.748;-63.293
0;-0.196;0.003;1.959;-2.563;78.125;-99.182
0;-0.112;-0.212;1.565;-70.496;100.708;-151.917
0;0.696;-0.683;0.453;-98.999;89.478;-175.293
0;0.884;-0.715;0.795;-6.958;20.325;-124.512
0;0.278;-0.373;1.635;111.084;-48.157;-57.617
0;0.228;-0.334;1.596;169.861;-44.617;-27.405
0;0.491;-0.369;1.303;189.392;-18.677;-22.888
0;0.342;-0.357;1.404;184.998;-46.753;-26.367
0;0.197;-0.332;1.433;182.861;-69.458;-28.687
0;0.167;-0.425;1.278;192.505;-64.453;-34.302
0;0.176;-0.519;1.049;197.571;-54.26;-43.274
0;0.139;-0.511;0.892;190.674;-53.284;-53.345
0;0.058;-0.334;0.805;180.481;-56.335;-60.974
0;-0.022;-0.205;0.713;171.387;-57.007;-58.777
0;-0.044;-0.167;0.645;159.973;-52.612;-51.575
0;-0.056;-0.047;0.707;150.024;-43.396;-45.654
0;-0.077;-0.123;0.73;143.921;-31.067;-36.438
0;0.002;-0.234;0.744;138;-19.409;-28.076
0;0.064;-0.333;0.818;125.122;-22.888;-18.372
0;0.083;-0.375;0.889;107.422;-32.593;-14.587
0;0.046;-0.335;0.972;97.534;-34.607;-22.644
0;-0.024;-0.463;0.937;96.741;-43.823;-26.794
0;-0.071;-0.542;0.888;98.999;-51.758;-30.029
0;-0.071;-0.499;0.859;106.262;-49.072;-38.574
0;-0.07;-0.563;0.71;121.887;-48.096;-47.913
0;-0.171;-0.485;0.539;137.329;-49.622;-59.387
0;-0.313;-0.318;0.417;142.822;-52.124;-60.364
0;-0.361;-0.473;0.263;137.878;-48.523;-51.331
0;-0.393;-0.545;0.255;126.221;-36.804;-47.546
0;-0.384;-0.518;0.336;114.868;-21.423;-46.814
0;-0.397;-0.499;0.314;120.178;-2.136;-44.983
0;-0.43;-0.475;0.345;132.874;15.442;-42.114
0;-0.422;-0.525;0.358;139.893;23.254;-33.569
0;-0.413;-0.546;0.37;141.541;32.104;-22.095
0;-0.559;-0.542;0.422;147.339;33.936;-12.695
0;-0.561;-0.684;0.342;158.936;29.114;-11.536
0;-0.42;-0.738;0.187;155.884;20.386;-28.625
0;-0.39;-0.658;0.224;144.409;0.488;-46.509
0;-0.49;-0.592;0.164;137.329;-16.663;-52.49
0;-0.52;-0.644;0.027;134.277;-23.376;-57.495
0;-0.617;-0.657;-0.2;135.071;-25.085;-59.692
0;-0.688;-0.587;-0.291;131.592;-27.283;-54.26
0;-0.737;-0.586;-0.485;132.996;-23.743;-45.776
0;-0.833;-0.536;-0.716;137.146;-20.813;-33.142
0;-1.102;-0.51;-0.573;150.818;-27.344;-13
0;-1.103;-0.666;-1.043;199.646;-35.522;36.56
0;-1.015;-0.486;-1.35;191.956;-22.156;87.463
0;-1.078;-0.504;-1.312;133.972;-27.466;115.479
0;-0.959;-0.485;-1.352;91.919;-39.978;137.146
0;-0.697;-0.303;-1.385;40.771;-45.654;131.592
0;-0.709;-0.475;-1.26;7.996;-50.598;98.206
0;-0.749;-0.461;-1.149;-9.583;-40.527;67.871
0;-0.671;-0.567;-0.951;-23.315;-18.738;44.983
0;-0.525;-0.716;-0.79;-36.987;4.089;31.372
0;-0.413;-0.784;-0.623;-54.016;19.104;28.625
0;-0.343;-0.736;-0.43;-73.181;27.588;26.062
0;-0.317;-0.754;-0.211;-78.491;32.471;23.071
0;-0.29;-0.783;-0.182;-71.594;36.621;23.743
0;-0.303;-0.826;-0.168;-64.819;27.222;27.893
0;-0.317;-0.898;-0.166;-58.228;9.949;32.532
0;-0.345;-0.912;-0.248;-55.054;-6.348;36.743
0;-0.421;-0.825;-0.299;-58.167;-24.78;34.18
0;-0.538;-0.757;-0.357;-68.726;-39.856;28.992
0;-0.589;-0.737;-0.413;-87.891;-53.162;23.437
0;-0.675;-0.755;-0.375;-106.75;-64.941;19.409
0;-0.664;-0.747;-0.424;-118.408;-65.002;19.226
0;-0.582;-0.716;-0.464;-129.272;-60.303;19.47
0;-0.501;-0.761;-0.457;-145.569;-55.908;15.625
0;-0.401;-0.76;-0.453;-160.522;-53.955;10.132
0;-0.299;-0.726;-0.409;-173.95;-55.115;1.221
0;-0.274;-0.718;-0.204;-183.411;-60.791;-11.658
0;-0.354;-0.753;-0.033;-178.101;-55.176;-19.409
0;-0.312;-0.417;-0.005;-164.978;-38.147;-10.559
0;-0.324;-0.127;0.052;-158.752;-31.372;3.235
0;-0.505;-0.218;0.021;-167.664;-35.706;7.385
0;-0.646;-0.201;-0.027;-176.331;-47.974;22.644
0;-0.626;-0.136;0.027;-192.322;-73.486;43.64
0;-0.666;-0.069;0.35;-213.745;-95.642;58.228
0;-0.582;-0.144;0.767;-216.98;-78.857;55.42
0;-0.221;-0.305;0.461;-215.393;-20.691;36.621
0;-0.057;-0.285;0.347;-217.834;-0.671;19.104
0;-0.03;-0.235;0.551;-221.191;-9.094;-7.141
0;-0.223;-0.25;0.834;-215.515;-8.972;-40.1
0;-0.573;-0.28;1.101;-203.369;9.033;-43.762
0;-0.341;-0.007;0.976;-197.998;60.73;-11.414
0;-0.093;0.261;0.996;-193.909;99.365;18.799
0;-0.377;0.262;0.946;-199.707;112.854;36.743
0;-0.382;0.136;1.195;-218.018;84.106;54.993
0;-0.118;0.186;1.361;-230.774;42.236;76.782
0;0.14;0.229;1.643;-252.625;13.733;95.459
0;0.269;0.107;1.902;-263.55;-9.766;94.543
0;0.314;-0.064;2.119;-245.117;-19.531;77.576
0;0.281;-0.117;2.162;-188.11;-14.465;53.04
0;0.229;-0.262;2.047;-119.385;3.052;29.114
0;0.276;-0.274;1.81;-61.401;12.817;10.01
0;0.271;-0.203;1.495;-23.376;9.521;-3.113
0;0.199;-0.164;1.37;-7.996;-7.446;-10.01
0;0.069;0.062;1.189;-6.897;-14.465;-10.62
0;-0.038;0.195;0.865;-31.189;2.258;0.549
0;0.026;0.272;1.018;-73.792;20.081;25.513
0;0.14;0.11;1.227;-107.422;52.734;41.992
0;0.237;-0.073;1.312;-123.474;89.172;39.734
0;0.321;-0.357;1.611;-132.446;88.745;40.039
0;0.388;-0.302;2.123;-120.178;52.49;44.006
0;0.346;-0.398;1.983;-87.219;41.992;36.072
0;0.278;-0.262;1.947;-65.491;10.437;25.635
0;0.119;-0.318;1.867;-32.227;-16.235;13.306
0;0.157;-0.32;1.674;7.751;-4.456;2.93
0;0.128;-0.328;1.392;29.419;-1.099;-6.042
0;0.085;-0.348;1.269;36.865;-1.221;-11.475
0;-0.002;-0.303;1.116;40.649;1.892;-13.306
0;-0.054;-0.253;0.983;38.391;10.742;-17.761
0;-0.18;-0.226;0.821;25.94;19.958;-18.86
0;-0.274;-0.29;0.619;14.587;17.151;-15.381
0;-0.305;-0.389;0.771;2.747;0.305;-9.888
0;-0.292;-0.38;0.82;-10.681;-1.709;-5.737
0;-0.286;-0.39;0.89;-16.663;4.456;-5.371
0;0.39;-0.255;1.98;-162.659;-17.944;67.81
0;0.294;-0.305;1.964;-138.123;-34.302;46.265
0;0.359;-0.337;1.776;-98.511;-23.743;31.128
0;0.357;-0.456;1.48;-62.744;-4.517;22.461
0;0.809;-0.268;1.306;-39.673;10.01;18.311
0;0.397;-0.271;0.743;-42.053;26.001;-3.052
0;0.221;-0.075;1.475;-63.66;-48.645;-15.32
0;-0.18;-0.137;1.514;-93.506;-52.063;21.301
0;-0.113;-0.479;1.632;-117.31;-30.09;41.26
0;-0.036;-1.127;1.758;-111.877;-11.414;41.382
0;-0.378;-2.114;4;-139.282;-11.292;41.26
0;0.254;-1.045;3.779;-135.559;-36.255;18.433
0;-0.63;-0.818;1.504;2.258;-64.636;-54.565
0;0.46;0.782;1.739;59.448;-89.417;-28.259
0;-1.189;-0.184;0.754;176.636;-92.285;7.202
0;-0.404;-0.874;0.66;155.273;-17.151;9.583
0;0.12;-0.493;0.945;72.998;19.653;36.987
0;0.181;-0.296;0.707;88.989;-14.709;26.794
0;0.034;-0.241;0.543;96.741;-58.777;4.944
0;-0.1;-0.118;0.469;85.938;-79.285;-5.493
0;-0.143;-0.197;0.285;70.923;-64.392;-11.536
0;-0.168;-0.304;0.111;55.603;-49.988;-18.433
0;-0.234;-0.303;0.192;40.527;-51.758;-20.325
0;-0.253;-0.256;0.436;29.358;-37.842;-20.508
0;-0.33;-0.34;0.353;28.931;-4.395;-23.376
0;-0.374;-0.367;0.427;20.142;8.911;-20.63
0;-0.394;-0.378;0.534;8.118;15.381;-14.893
0;-0.388;-0.368;0.623;-3.662;16.174;-7.568
0;-0.391;-0.349;0.728;-13.489;12.146;-2.563
0;-0.409;-0.348;0.819;-19.47;3.662;-0.916
0;-0.408;-0.367;0.912;-21.301;-3.54;3.235
0;-0.367;-0.446;0.934;-17.7;-6.104;9.155
0;-0.321;-0.515;0.96;-13.794;-4.028;11.78
0;-0.294;-0.542;0.99;-13.489;-1.404;12.512
0;-0.284;-0.542;1.03;-14.282;0.61;13.55
0;-0.271;-0.525;1.054;-11.719;3.052;14.587
0;-0.253;-0.525;1.056;-7.324;5.005;14.404
0;-0.235;-0.523;1.05;-5.005;4.578;14.099
0;-0.222;-0.515;1.041;-2.319;1.404;12.878
0;-0.216;-0.492;1.016;0.244;-1.953;9.949
0;-0.24;-0.496;0.997;1.648;-5.615;6.775
0;-0.18;-0.527;0.967;2.075;-9.399;3.967
0;-0.149;-0.491;0.896;1.892;-14.221;5.615
0;-0.147;-0.49;0.898;1.038;-17.639;3.601
0;-0.158;-0.482;0.885;0.061;-15.686;0.549
0;-0.168;-0.463;0.859;-0.244;-13;0.61
0;-0.168;-0.454;0.887;-0.305;-12.146;0.244
0;-0.181;-0.454;0.879;0.061;-6.47;-0.854
0;-0.196;-0.454;0.866;2.136;-4.822;-2.563
0;-0.222;-0.439;0.851;4.883;-4.395;-5.188
0;-0.254;-0.43;0.813;6.531;-4.272;-7.507
0;-0.276;-0.411;0.807;6.409;-5.127;-8.85
0;-0.312;-0.4;0.787;4.883;-5.92;-9.338
0;-0.334;-0.404;0.774;2.991;-5.676;-8.057
0;-0.363;-0.395;0.776;2.38;-4.089;-5.066
0;-0.359;-0.378;0.773;2.075;-0.61;-0.427
0;-0.341;-0.389;0.786;0.671;3.113;4.211
0;-0.309;-0.426;0.797;-1.709;5.92;7.141
0;-0.283;-0.447;0.828;-3.906;7.324;8.789
0;-0.271;-0.456;0.847;-4.395;7.751;8.484
0;-0.267;-0.452;0.841;-3.784;7.019;7.08
0;-0.243;-0.459;0.827;-2.991;5.066;6.042
0;-0.237;-0.451;0.837;-2.319;2.319;4.089
0;-0.257;-0.43;0.848;-2.808;0.061;1.16
0;-0.288;-0.414;0.869;-2.93;-1.404;0.183
0;-0.291;-0.413;0.858;-2.197;-2.502;2.136
0;-0.284;-0.419;0.854;-2.197;-2.869;4.883
0;-0.278;-0.432;0.851;-3.662;-3.479;6.836
0;-0.256;-0.444;0.859;-4.578;-3.906;8.484
0;-0.248;-0.452;0.854;-3.967;-3.601;9.155
0;-0.237;-0.457;0.85;-2.563;-3.418;9.46
0;-0.225;-0.45;0.837;-1.892;-2.747;9.338
0;-0.224;-0.443;0.825;-2.563;-2.441;7.507
0;-0.219;-0.449;0.828;-2.869;-1.77;4.944
0;-0.217;-0.451;0.824;-2.197;-0.366;2.319
0;-0.222;-0.44;0.814;-1.831;0.549;0.244
0;-0.238;-0.427;0.814;-2.625;-0.122;-0.366
0;-0.243;-0.427;0.822;-4.028;-0.732;0.549
0;-0.252;-0.419;0.828;-5.371;-0.427;2.258
0;-0.244;-0.428;0.842;-6.836;0.305;3.967
0;-0.245;-0.444;0.859;-7.935;1.221;4.395
0;-0.251;-0.452;0.873;-7.935;1.77;4.456
0;-0.253;-0.446;0.887;-6.348;2.075;4.883
0;-0.249;-0.437;0.883;-4.395;2.502;5.127
0;-0.239;-0.424;0.87;-3.54;2.075;4.7
0;-0.238;-0.431;0.861;-4.333;0.244;3.418
0;-0.239;-0.43;0.862;-4.761;-1.465;2.258
0;-0.231;-0.433;0.843;-4.944;-1.648;1.953
0;-0.231;-0.431;0.848;-6.104;-1.343;1.831
0;-0.233;-0.427;0.852;-7.568;-1.16;2.014
0;-0.233;-0.429;0.861;-8.179;-1.038;2.563
0;-0.233;-0.434;0.868;-8.362;-1.221;2.563
0;-0.235;-0.432;0.874;-8.606;-1.404;2.441
0;-0.238;-0.428;0.884;-8.911;-1.648;1.77
0;-0.24;-0.431;0.907;-8.728;-4.272;0.488
0;-0.249;-0.421;0.88;-7.874;-4.883;0.122
0;-0.24;-0.44;0.895;-7.019;-5.676;-0.427
0;-0.247;-0.425;0.881;-5.31;-4.7;0.366
0;-0.246;-0.418;0.879;-3.601;-3.235;1.465
0;-0.238;-0.407;0.873;-3.601;-1.16;2.502
0;-0.259;-0.425;0.903;-3.723;-0.916;2.075
0;-0.276;-0.444;0.973;-2.869;-0.793;2.808
0;-0.253;-0.439;0.984;-1.953;-1.709;3.357
0;-0.243;-0.431;0.952;-1.465;-4.028;1.648
0;-0.239;-0.423;0.906;-0.183;-5.249;0.061
0;-0.228;-0.411;0.867;0.488;-3.967;-0.305
0;-0.228;-0.4;0.848;0;-2.502;-0.183
0;-0.228;-0.404;0.851;-0.732;-1.587;0.061
0;-0.224;-0.416;0.866;-1.282;-0.549;-0.061
0;-0.221;-0.416;0.876;-0.793;0.61;0
0;-0.231;-0.405;0.897;-0.427;1.038;-0.671
0;-0.242;-0.404;0.915;-0.061;0.488;-1.099
0;-0.249;-0.397;0.923;1.282;0.061;-0.732
0;-0.239;-0.401;0.892;2.808;-0.061;-0.549
0;-0.234;-0.421;0.847;3.113;0.061;-0.732
0;-0.233;-0.412;0.837;1.648;-1.038;-0.732
0;-0.245;-0.405;0.873;-0.671;-3.174;-0.61
0;-0.24;-0.408;0.881;-0.671;-2.869;-0.671
0;-0.239;-0.408;0.875;0.793;-1.221;-0.916
0;-0.089;-0.659;2.055;25.635;65.552;39.246
0;-0.073;-0.645;2.154;42.908;62.683;26.489
0;-0.021;-0.632;2.169;65.857;63.232;12.512
0;0.005;-0.605;2.14;90.637;62.744;3.479
0;0.022;-0.563;2.091;111.938;59.326;-0.122
0;0.032;-0.496;2.074;135.01;52.49;0.916
0;0.113;-0.463;2.005;155.701;50.964;3.906
0;0.173;-0.426;1.858;166.626;53.65;0.061
0;0.203;-0.401;1.722;169.8;49.5;-8.057
0;0.205;-0.404;1.622;172.424;34.119;-18.005
0;0.177;-0.328;1.475;178.467;19.836;-27.954
0;0.126;-0.183;1.401;190.308;14.771;-33.386
0;0.113;-0.114;1.352;199.097;16.541;-31.006
0;0.13;-0.103;1.248;198.059;23.682;-27.893
0;0.165;-0.172;1.206;195.74;26.855;-25.818
0;0.229;-0.261;1.139;192.81;27.771;-27.039
0;0.219;-0.227;1.02;191.956;26.489;-36.194
0;0.131;-0.142;1.09;195.74;18.25;-44.128
0;0.14;-0.125;1.087;195.801;13.916;-43.457
0;0.135;-0.14;0.949;199.768;15.503;-43.335
0;0.141;-0.236;0.824;213.013;9.705;-44.434
0;0.154;-0.225;0.6;221.863;5.493;-48.523
0;0.105;-0.192;0.431;222.595;1.892;-56.458
0;0.055;-0.182;0.363;216.919;-3.174;-58.96
0;-0.025;-0.162;0.318;207.397;-4.578;-58.044
0;-0.088;-0.225;0.242;205.017;-2.747;-56.58
0;-0.146;-0.249;0.224;205.75;-2.441;-54.871
0;-0.173;-0.262;0.091;208.923;1.953;-55.481
0;-0.193;-0.332;-0.017;205.139;3.662;-56.885
0;-0.22;-0.369;-0.056;198.242;4.517;-58.777
0;-0.267;-0.347;-0.167;196.655;11.963;-61.218
0;-0.349;-0.364;-0.259;194.458;18.372;-60.181
0;-0.354;-0.394;-0.292;183.044;19.775;-54.077
0;-0.362;-0.464;-0.389;169.495;20.081;-57.251
0;-0.412;-0.467;-0.438;163.208;16.724;-62.439
0;-0.464;-0.464;-0.371;154.358;5.981;-59.204
0;-0.506;-0.493;-0.419;149.719;-4.395;-55.42
0;-0.512;-0.506;-0.562;155.823;-12.634;-56.458
0;-0.547;-0.445;-0.703;157.471;-25.513;-55.603
0;-0.588;-0.453;-0.833;146.851;-46.57;-52.795
0;-0.592;-0.513;-0.981;136.78;-75.684;-51.208
0;-0.587;-0.596;-1.133;140.93;-96.008;-41.26
0;-0.757;-0.473;-1.339;141.235;-95.093;-19.104
0;-0.749;-0.463;-1.455;125.793;-86.548;1.038
0;-0.886;-0.433;-1.567;111.389;-78.064;21.423
0;-0.962;-0.342;-1.631;94.849;-69.824;36.987
0;-0.888;-0.44;-1.599;70.557;-63.782;33.63
0;-0.727;-0.555;-1.533;51.331;-50.72;27.283
0;-0.534;-0.655;-1.443;29.236;-26.489;25.33
0;-0.354;-0.678;-1.297;-1.709;-3.113;32.715
0;-0.252;-0.734;-1.067;-30.212;4.211;37.292
0;-0.193;-0.761;-0.826;-46.936;2.258;37.659
0;-0.137;-0.799;-0.712;-51.697;4.822;34.119
0;-0.095;-0.813;-0.68;-50.537;12.085;26.917
0;-0.103;-0.818;-0.671;-52.612;17.029;17.273
0;-0.138;-0.8;-0.664;-59.753;14.526;8.484
0;-0.203;-0.767;-0.651;-67.017;5.249;2.258
0;-0.272;-0.718;-0.652;-70.313;-5.493;-0.916
0;-0.329;-0.671;-0.727;-72.693;-17.883;-2.747
0;-0.376;-0.654;-0.823;-75.684;-33.997;-3.418
0;-0.407;-0.644;-0.869;-82.458;-53.528;-2.258
0;-0.419;-0.599;-0.856;-92.773;-67.993;-0.244
0;-0.413;-0.575;-0.849;-105.408;-70.068;1.648
0;-0.373;-0.579;-0.848;-119.69;-63.66;2.93
0;-0.338;-0.568;-0.794;-134.705;-53.833;3.357
0;-0.303;-0.544;-0.718;-148.01;-40.344;2.258
0;-0.292;-0.513;-0.628;-158.142;-23.56;-0.732
0;-0.292;-0.461;-0.526;-165.1;-7.202;-3.052
0;-0.359;-0.365;-0.377;-171.448;3.723;-4.456
0;-0.383;-0.37;-0.307;-177.795;9.827;-2.625
0;-0.358;-0.391;-0.242;-183.777;9.155;1.709
0;-0.332;-0.41;-0.167;-188.782;3.845;5.798
0;-0.273;-0.46;-0.165;-193.848;-0.305;6.042
0;-0.225;-0.447;-0.144;-200.5;-5.371;4.822
0;-0.153;-0.45;-0.138;-207.703;-9.155;1.099
0;-0.121;-0.396;-0.092;-214.478;-11.292;-6.531
0;-0.186;-0.195;0.035;-216.492;-11.047;-13.794
0;-0.237;-0.026;0.177;-214.233;-9.521;-15.686
0;-0.345;-0.009;0.248;-209.045;-8.728;-11.658
0;-0.409;0.141;0.374;-206.238;-10.254;6.714
0;-0.414;0.175;0.567;-220.398;-12.634;30.273
0;-0.307;0.06;0.668;-244.385;-14.221;51.331
0;-0.177;-0.052;0.788;-259.644;-12.878;61.707
0;-0.096;-0.164;1.059;-260.681;-13.245;61.768
0;-0.05;-0.105;1.267;-252.991;-0.977;53.04
0;-0.153;-0.127;1.614;-235.291;16.235;40.466
0;-0.095;-0.158;1.978;-219.36;31.25;36.438
0;0.02;-0.236;1.941;-213.928;47.852;31.067
0;0.125;-0.265;1.952;-197.327;44.495;19.104
0;0.055;-0.394;1.941;-171.204;30.09;9.033
0;0.098;-0.384;1.838;-152.1;15.015;5.31
0;0.072;-0.304;1.737;-136.78;1.526;4.822
0;0.035;-0.349;1.829;-126.526;-11.23;5.859
0;0.101;-0.48;1.903;-129.089;-8.301;4.761
0;0.009;-0.573;1.866;-128.113;10.376;-4.272
0;-0.067;-0.607;1.848;-117.432;23.987;-10.498
0;-0.132;-0.625;1.82;-104.492;24.902;-11.78
0;-0.174;-0.666;1.771;-87.952;21.851;-13.184
0;-0.197;-0.611;1.68;-68.726;23.743;-13.428
0;-0.017;-0.456;1.557;-51.331;31.616;-16.968
0;0.026;-0.35;0.991;-50.354;47.302;-36.316
0;-0.039;-0.699;1.052;-43.213;-8.484;-61.89
0;-0.199;-0.613;1.36;-57.678;-27.222;-43.701
0;-0.136;-0.5;1.434;-61.035;-20.752;-35.095
0;-0.083;-0.609;1.409;-63.843;5.676;-29.419
0;-0.134;-0.622;1.279;-62.683;17.578;-8.179
0;-0.029;-0.521;1.214;-60.913;16.785;13.245
0;0.06;-0.353;1.191;-55.481;7.629;22.339
0;0.043;-0.273;1.148;-41.321;-6.775;19.104
0;0.052;-0.37;1.124;-27.1;-16.785;4.395
0;-0.07;-0.369;0.94;-15.442;-16.663;-9.399
0;-0.189;-0.434;1.021;-5.127;-28.503;-15.503
0;-0.216;-0.377;1.002;-2.869;-21.484;-10.193
0;-0.228;-0.355;0.929;-2.991;-7.385;-8.789
0;-0.205;-0.381;0.859;-6.653;4.089;-6.348
0;-0.172;-0.386;0.775;-11.047;8.24;-2.869
0;-0.147;-0.412;0.761;-13.489;2.075;-1.892
0;-0.137;-0.43;0.783;-12.756;-8.728;-2.441
0;-0.145;-0.41;0.792;-10.254;-17.761;-2.869
0;-0.104;-0.368;2.025;79.773;65.918;18.738
0;-0.041;-0.389;2.058;91.37;69.214;19.104
0;0.058;-0.426;2.057;99.548;73.914;16.418
0;0.141;-0.46;1.949;111.694;77.332;9.338
0;0.165;-0.433;1.937;128.479;72.937;-1.221
0;0.169;-0.317;1.801;146.057;67.017;-12.939
0;0.128;-0.227;1.711;161.56;56.458;-22.095
0;0.14;-0.198;1.594;171.265;41.138;-26.794
0;0.151;-0.161;1.501;173.523;28.809;-31.006
0;0.134;-0.026;1.361;177.307;23.56;-35.461
0;0.105;0.048;1.326;185.12;17.822;-36.682
0;0.137;-0.085;1.28;185.791;8.179;-33.081
0;0.21;-0.266;1.196;174.927;-1.343;-31.372
0;0.249;-0.281;1.093;172.241;-10.071;-34.79
0;0.168;-0.188;1.187;184.143;-22.034;-39.734
0;0.103;-0.052;1.244;202.942;-24.414;-39.978
0;0.12;-0.129;1.169;215.576;-17.395;-37.659
0;0.19;-0.146;0.977;219.788;-7.324;-36.987
0;0.237;-0.199;0.906;220.337;-3.54;-40.039
0;0.24;-0.257;0.782;215.332;-2.502;-46.936
0;0.122;-0.199;0.712;216.309;-1.892;-55.359
0;0.1;-0.202;0.604;225.281;-1.343;-57.495
0;0.11;-0.243;0.422;218.628;-3.967;-60.547
0;0.012;-0.277;0.274;205.261;-11.597;-65.613
0;-0.073;-0.335;0.161;198.547;-20.569;-67.932
0;-0.161;-0.32;0.032;200.378;-27.832;-68.115
0;-0.257;-0.354;-0.157;208.435;-26.367;-70.435
0;-0.353;-0.423;-0.409;213.135;-23.01;-73.792
0;-0.437;-0.459;-0.67;211.792;-24.292;-71.106
0;-0.461;-0.482;-0.848;201.599;-32.41;-64.209
0;-0.521;-0.458;-0.934;180.847;-44.617;-54.565
0;-0.619;-0.507;-0.93;157.715;-56.03;-44.617
0;-0.576;-0.605;-0.896;142.029;-56.58;-36.072
0;-0.62;-0.557;-0.912;133.911;-45.715;-19.409
0;-0.884;-0.378;-0.916;124.512;-40.283;-0.793
0;-0.774;-0.482;-0.868;110.962;-41.748;-2.808
0;-0.701;-0.595;-0.681;93.201;-45.105;-5.371
0;-0.613;-0.673;-0.401;72.449;-37.964;1.892
0;-0.477;-0.816;-0.163;47.607;-22.095;7.263
0;-0.343;-0.915;0.085;28.625;-13.55;10.071
0;-0.249;-0.968;0.306;23.682;-15.747;9.644
0;-0.189;-0.98;0.32;35.583;-20.325;3.906
0;-0.114;-0.958;0.125;62.683;-21.912;-7.08
0;-0.098;-0.883;-0.139;89.417;-24.536;-23.926
0;-0.163;-0.86;-0.369;101.074;-35.034;-42.236
0;-0.26;-0.824;-0.599;100.83;-45.288;-54.81
0;-0.379;-0.715;-0.793;97.656;-51.086;-58.35
0;-0.456;-0.641;-1.001;91.98;-54.443;-54.932
0;-0.519;-0.678;-1.184;78.369;-59.692;-46.997
0;-0.57;-0.695;-1.22;58.35;-63.11;-35.278
0;-0.558;-0.674;-1.172;33.691;-54.382;-21.973
0;-0.472;-0.572;-1.155;9.216;-33.691;-9.827
0;-0.46;-0.507;-1.089;-8.85;-11.597;-3.357
0;-0.536;-0.645;-0.99;-24.109;7.69;-1.953
0;-0.486;-0.748;-0.844;-40.039;24.231;6.897
0;-0.394;-0.768;-0.676;-54.504;33.63;19.592
0;-0.324;-0.852;-0.622;-62.256;37.72;21.362
0;-0.299;-0.89;-0.564;-62.439;32.166;16.846
0;-0.297;-0.869;-0.528;-59.387;22.766;11.902
0;-0.288;-0.844;-0.58;-57.922;14.771;6.287
0;-0.308;-0.825;-0.643;-58.655;1.648;1.099
0;-0.358;-0.776;-0.654;-60.242;-14.099;-0.671
0;-0.379;-0.712;-0.712;-62.927;-22.278;1.892
0;-0.373;-0.656;-0.778;-69.458;-25.024;6.958
0;-0.349;-0.622;-0.799;-81.543;-27.954;13.062
0;-0.313;-0.608;-0.755;-98.755;-29.663;18.127
0;-0.258;-0.612;-0.731;-117.859;-24.475;18.921
0;-0.221;-0.569;-0.635;-134.216;-14.282;15.015
0;-0.211;-0.558;-0.557;-147.461;-2.197;8.85
0;-0.189;-0.562;-0.463;-159.119;7.935;2.625
0;-0.192;-0.525;-0.34;-168.457;18.921;-3.113
0;-0.215;-0.454;-0.236;-173.157;33.081;-9.766
0;-0.249;-0.408;-0.186;-176.025;44.067;-15.076
0;-0.321;-0.326;-0.066;-180.786;47.18;-16.968
0;-0.383;-0.298;0.01;-187.988;47.058;-15.137
0;-0.435;-0.295;0.019;-194.763;46.509;-10.01
0;-0.451;-0.3;0.082;-200.928;40.71;-1.953
0;-0.409;-0.368;0.153;-212.036;34.241;4.883
0;-0.376;-0.418;0.213;-222.412;27.771;7.874
0;-0.37;-0.504;0.239;-221.497;25.574;5.432
0;-0.37;-0.58;0.287;-213.135;30.884;-1.709
0;-0.367;-0.62;0.331;-210.327;46.082;-8.972
0;-0.198;-0.467;0.28;-215.393;71.228;-9.766
0;-0.198;-0.243;0.356;-221.985;85.327;-0.549
0;-0.185;0.131;0.596;-244.08;84.412;16.357
0;-0.332;0.806;0.732;-258.362;68.237;37.476
0;-0.531;1.274;0.976;-233.521;12.451;68.237
0;-0.555;0.704;1.507;-197.571;-60.059;75.073
0;-0.328;0.032;1.877;-172.546;-86.487;69.031
0;-0.266;-0.615;2.042;-192.566;-36.316;66.772
0;0.227;-0.581;1.664;-237;61.462;68.787
0;0.334;-0.566;1.644;-221.863;60.913;65.552
0;0.208;-0.753;2.018;-197.327;40.833;34.18
0;0.155;-0.808;1.945;-178.406;52.307;10.986
0;0.181;-0.782;1.834;-163.879;57.8;1.282
0;0.087;-0.555;1.747;-155.457;65.857;-0.916
0;-0.03;-0.154;1.703;-143.433;80.017;9.583
0;-0.083;0.07;1.753;-131.042;82.764;26.306
0;-0.011;0.211;1.775;-130.005;81.543;36.316
0;0.018;0.224;1.768;-127.258;79.773;37.781
0;0.167;-0.028;1.748;-111.45;75.928;27.832
0;0.381;-0.199;1.615;-85.876;71.655;13.794
0;0.358;-0.321;0.957;-66.406;66.406;-7.874
0;0.285;-0.671;1.116;-51.636;-15.686;-28.687
0;0.078;-0.395;1.308;-29.48;-73.425;-14.221
0;0.091;-0.374;1.346;-25.452;-87.891;-24.17
0;0.063;-0.412;1.079;-28.809;-69.092;-37.292
0;-0.062;-0.382;1.14;-30.029;-70.801;-37.476
0;-0.112;-0.193;1.039;-29.541;-72.021;-20.691
0;-0.167;-0.068;0.974;-24.048;-74.463;-4.7
0;-0.249;-0.149;1.02;-17.517;-86.304;4.822
0;-0.197;-0.203;1.187;-26.245;-86.548;14.465
0;-0.141;-0.22;1.452;-42.847;-62.988;11.414
0;-0.147;-0.314;1.589;-38.94;-25.696;-2.38
0;-0.152;-0.352;1.271;-28.87;15.381;-12.573
0;-0.09;-0.348;1.053;-27.222;29.541;-13.855
0;-0.101;-0.345;1.221;-20.935;14.099;-17.944
0;-0.184;-0.382;1.365;-14.648;-2.258;-24.048
0;-0.257;-0.344;1.233;-11.23;-4.578;-22.644
0;0.203;-0.116;2.393;75.439;56.396;58.96
0;0.22;-0.091;2.45;98.755;52.185;47.241
0;0.319;-0.092;2.345;124.512;51.88;37.354
0;0.374;-0.019;2.192;148.804;47.974;26.428
0;0.289;0.121;2.097;174.988;38.513;14.404
0;0.203;0.14;2.005;200.012;27.405;7.568
0;0.241;0.148;1.794;213.135;17.395;7.202
0;0.295;0.171;1.575;221.741;5.249;7.812
0;0.327;0.151;1.495;228.76;-17.334;5.371
0;0.318;0.13;1.421;228.882;-38.025;0.671
0;0.319;0.161;1.383;229.37;-48.523;-2.808
0;0.255;0.174;1.431;229.919;-49.194;-5.493
0;0.16;0.209;1.5;226.379;-41.565;-6.836
0;0.255;0.098;1.475;225.037;-39.001;-4.028
0;0.354;0.079;1.395;224.609;-41.626;-6.592
0;0.376;0.101;1.35;232.971;-41.26;-18.494
0;0.361;0.068;1.214;246.277;-38.879;-34.119
0;0.286;0.138;1.02;262.756;-27.832;-46.57
0;0.187;0.252;0.875;281.189;-7.874;-50.598
0;0.148;0.155;0.693;281.311;9.399;-54.443
0;0.174;0.006;0.413;273.376;19.409;-59.998
0;0.128;-0.102;0.294;269.043;11.353;-64.453
0;0.037;-0.178;0.073;268.372;2.014;-69.763
0;-0.037;-0.269;-0.175;267.273;-5.127;-71.35
0;-0.12;-0.368;-0.292;262.512;-16.602;-72.937
0;-0.158;-0.379;-0.486;255.615;-19.531;-77.82
0;-0.263;-0.192;-0.586;248.657;-17.151;-78.003
0;-0.414;-0.14;-0.597;241.211;-17.029;-70.251
0;-0.49;-0.184;-0.766;229.065;-16.479;-65.979
0;-0.474;-0.182;-1.022;219.36;-23.56;-66.101
0;-0.56;-0.19;-1.14;214.783;-49.072;-63.049
0;-0.628;-0.211;-1.213;204.468;-79.102;-56.885
0;-0.656;-0.27;-1.341;190.186;-98.206;-47.119
0;-0.651;-0.357;-1.551;184.692;-101.746;-33.936
0;-0.678;-0.38;-1.685;182.678;-87.83;-19.592
0;-0.731;-0.498;-1.812;159.424;-59.509;-12.634
0;-0.625;-0.631;-1.897;121.704;-35.706;-11.658
0;-0.538;-0.659;-1.817;85.999;-32.349;-8.484
0;-0.524;-0.611;-1.655;54.443;-39.673;-4.822
0;-0.498;-0.596;-1.46;29.236;-46.265;-3.174
0;-0.454;-0.614;-1.314;8.972;-51.697;-0.671
0;-0.413;-0.662;-1.175;-8.057;-60.486;3.662
0;-0.36;-0.726;-1.007;-22.461;-71.472;8.118
0;-0.367;-0.751;-0.817;-33.508;-78.918;10.62
0;-0.327;-0.792;-0.723;-33.264;-72.632;11.78
0;-0.237;-0.829;-0.781;-28.87;-45.959;9.277
0;-0.156;-0.889;-0.905;-34.424;-17.7;2.075
0;-0.132;-0.914;-0.972;-47.974;-7.751;-4.883
0;-0.144;-0.889;-0.95;-59.631;-9.399;-10.132
0;-0.153;-0.861;-0.985;-68.054;-5.859;-14.709
0;-0.153;-0.831;-1.026;-77.759;0.183;-18.799
0;-0.173;-0.771;-1.037;-91.492;5.188;-19.958
0;-0.198;-0.697;-1.01;-107.178;9.521;-18.433
0;-0.205;-0.642;-0.978;-123.962;14.893;-16.602
0;-0.201;-0.61;-0.907;-141.663;19.531;-15.503
0;-0.202;-0.564;-0.797;-157.715;24.78;-15.076
0;-0.232;-0.483;-0.663;-169.678;33.447;-15.747
0;-0.27;-0.441;-0.572;-179.321;45.41;-16.479
0;-0.323;-0.376;-0.488;-190.125;53.833;-15.503
0;-0.37;-0.329;-0.378;-201.66;54.199;-11.475
0;-0.333;-0.297;-0.271;-213.44;51.27;-6.042
0;-0.318;-0.253;-0.111;-225.037;50.232;-5.31
0;-0.396;-0.276;-0.005;-232.239;54.382;-11.414
0;-0.369;-0.361;-0.016;-230.835;57.983;-15.015
0;-0.29;-0.381;0.008;-225.281;57.251;-15.076
0;-0.257;-0.233;0.005;-225.464;56.702;-18.921
0;-0.383;-0.02;0.105;-229.553;51.88;-20.752
0;-0.472;0.035;0.185;-233.276;42.053;-11.047
0;-0.441;0.057;0.294;-234.314;33.936;10.437
0;-0.326;0.05;0.445;-235.352;34.607;32.532
0;-0.209;0.158;0.551;-239.136;46.631;44.128
0;-0.224;0.263;0.693;-241.455;58.35;45.349
0;-0.278;0.297;0.854;-239.868;64.453;45.959
0;-0.317;0.317;0.968;-234.924;67.2;51.147
0;-0.326;0.38;1.206;-225.464;69.58;62.317
0;-0.195;0.394;1.578;-220.093;74.524;79.224
0;0.084;0.343;1.951;-229.553;83.984;92.712
0;0.259;0.349;2.247;-242.798;93.201;94.666
0;0.217;0.333;2.634;-239.99;92.834;91.125
0;0.315;0.138;2.843;-224.609;81.787;88.013
0;0.557;-0.045;2.794;-200.867;61.279;86.243
0;0.68;-0.185;2.655;-164.185;33.264;74.097
0;0.776;-0.243;2.422;-118.408;13.55;55.664
0;0.788;-0.478;2.095;-73.853;-1.343;33.936
0;0.814;-0.756;1.623;-52.856;-15.198;10.498
0;0.365;-0.631;1.36;-53.406;-38.086;-16.907
0;0.327;-0.492;0.948;-54.688;-61.157;-41.077
0;-0.191;-0.498;1.891;-47.119;-118.958;-50.842
0;-0.327;-0.262;1.448;-39.734;-74.707;-28.32
0;-0.27;-0.279;1.459;-37.537;-40.71;-26.917
0;-0.16;-0.301;1.149;-33.936;-18.372;-28.503
0;-0.132;-0.355;0.952;-40.955;-17.944;-23.315
0;-0.151;-0.315;0.946;-45.837;-36.316;-17.334
0;-0.117;-0.29;0.921;-47.791;-45.288;-17.761
0;-0.08;-0.29;0.899;-45.715;-47.791;-18.738
0;-0.067;-0.238;0.92;-41.809;-45.288;-15.503
0;-0.051;-0.206;0.956;-37.415;-31.25;-12.756
0;-0.052;-0.199;0.998;-36.194;-8.85;-11.292
0;-0.059;-0.205;1.01;-39.856;10.864;-7.446
0;-0.065;-0.242;1.053;-44.983;20.874;-4.517
0;-0.096;-0.308;1.153;-46.57;26.367;-5.066
0;-0.031;-0.326;1.133;-48.34;33.081;-7.141
0;0.017;-0.262;0.914;-50.72;33.325;-15.442
0;-0.156;-0.435;1.249;-46.509;-0.916;-26.611
0;-0.193;-0.466;1.436;-40.283;-16.602;-19.409
0;-0.147;-0.397;1.901;-28.809;-36.865;-30.823
0;-0.333;-0.147;1.793;-13.916;-44.556;-42.664
0;-0.364;-0.045;1.215;-11.963;-19.653;-32.043
0;-0.18;-0.134;0.737;-14.771;-2.563;-15.869
0;-0.168;-0.262;0.828;-11.841;-13.245;-7.507
0;-0.099;-0.213;0.854;-8.789;-21.118;1.77
0;-0.05;-0.191;0.799;-6.775;-20.996;2.075
0;-0.078;-0.197;0.74;-3.052;-18.433;-3.113
0;-0.128;-0.245;0.731;-4.028;-14.343;-6.592
0;-0.202;-0.283;0.975;-5.493;-11.108;-4.395
0;-0.163;-0.225;1.151;-5.31;-4.272;1.282
0;-0.13;-0.197;1.204;-5.981;-0.671;0.244
0;-0.12;-0.208;1.099;-5.371;1.282;-5.188
0;-0.146;-0.166;0.938;-3.845;0.366;-8.057
0;-0.363;-0.264;-2.107;155.884;-175.781;-54.81
0;-0.442;-0.266;-2.285;144.165;-193.115;-51.819
0;-0.578;-0.322;-2.322;127.625;-182.8;-41.626
0;-0.708;-0.487;-2.186;95.52;-147.278;-24.902
0;-0.692;-0.561;-2.028;53.284;-95.459;-2.441
0;-0.575;-0.537;-1.784;15.198;-44.128;18.433
0;-0.499;-0.57;-1.478;-12.146;-6.104;33.142
0;-0.448;-0.675;-1.197;-33.691;24.963;40.649
0;-0.386;-0.763;-0.954;-50.293;53.65;43.518
0;-0.328;-0.814;-0.75;-60.73;76.294;43.64
0;-0.269;-0.866;-0.612;-66.772;88.623;41.504
0;-0.2;-0.909;-0.528;-68.298;89.783;38.025
0;-0.144;-0.909;-0.474;-66.711;83.191;32.776
0;-0.124;-0.899;-0.478;-62.5;72.51;25.635
0;-0.104;-0.883;-0.547;-54.688;62.439;18.005
0;-0.084;-0.851;-0.658;-48.523;54.81;9.399
0;-0.075;-0.826;-0.765;-48.95;45.715;0.793
0;-0.094;-0.781;-0.835;-54.993;34.729;-5.981
0;-0.136;-0.688;-0.847;-63.904;26.978;-11.658
0;-0.173;-0.628;-0.865;-76.782;23.56;-16.052
0;-0.203;-0.587;-0.859;-94.482;19.287;-16.907
0;-0.218;-0.55;-0.795;-112.305;15.076;-13.123
0;-0.191;-0.528;-0.717;-129.272;16.785;-8.606
0;-0.166;-0.508;-0.634;-144.958;24.841;-7.874
0;-0.166;-0.489;-0.548;-155.273;34.851;-11.353
0;-0.214;-0.42;-0.448;-161.194;44.983;-16.296
0;-0.271;-0.427;-0.379;-166.504;53.894;-21.179
0;-0.284;-0.471;-0.34;-174.316;59.082;-24.658
0;-0.276;-0.514;-0.282;-182.312;58.838;-28.809
0;-0.256;-0.534;-0.22;-188.049;59.021;-35.95
0;-0.292;-0.414;-0.138;-190.796;63.354;-46.509
0;-0.418;-0.22;-0.065;-190.002;68.237;-52.917
0;-0.509;-0.128;-0.059;-193.604;64.209;-49.622
0;-0.608;-0.052;0.028;-204.468;48.645;-35.034
0;-0.643;-0.085;0.141;-216.98;31.311;-14.465
0;-0.554;-0.172;0.193;-226.318;18.677;5.371
0;-0.434;-0.25;0.251;-229.004;14.587;17.517
0;-0.326;-0.311;0.307;-226.746;20.63;19.714
0;-0.262;-0.368;0.39;-218.933;36.438;17.578
0;-0.191;-0.402;0.453;-210.083;63.538;11.23
0;-0.124;-0.384;0.481;-202.332;97.168;1.221
0;-0.107;-0.288;0.518;-192.566;128.296;-13.367
0;-0.349;-0.024;0.691;-184.387;147.095;-25.33
0;-0.597;0.385;1.082;-195.862;147.827;-12.878
0;-0.45;0.708;1.496;-232.3;130.127;27.771
0;-0.397;0.49;1.655;-259.521;93.018;67.871
0;-0.223;-0.029;1.782;-267.212;50.232;95.276
0;0.03;-0.265;1.895;-268.982;11.108;118.164
0;0.175;-0.403;1.938;-254.7;-6.287;113.77
0;0.204;-0.481;2;-217.468;-1.587;86.731
0;0.244;-0.558;1.92;-176.88;14.404;49.622
0;0.229;-0.619;1.756;-146.729;29.053;15.015
0;0.199;-0.598;1.642;-120.605;40.344;-5.554
0;0.145;-0.573;1.589;-96.252;60.486;-17.578
0;0.122;-0.514;1.514;-78.796;95.398;-24.231
0;0.092;-0.323;1.532;-73.853;133.118;-22.827
0;0.054;-0.124;1.524;-83.801;154.358;-12.939
0;0.078;-0.044;1.626;-100.586;150.024;0.916
0;0.143;-0.142;1.602;-112.549;125.427;8.545
0;0.289;-0.255;1.664;-112.488;87.524;7.202
0;0.231;-0.493;1.262;-104.553;53.589;-10.315
0;-0.028;-0.623;1.636;-92.59;-25.146;-24.353
0;-0.158;-0.418;1.533;-67.261;-70.251;-19.104
0;-0.198;-0.372;1.365;-39.49;-88.074;-21.545
0;-0.212;-0.348;1.068;-18.555;-97.595;-28.503
0;-0.276;-0.263;0.936;-6.836;-110.718;-28.992
0;-0.351;-0.168;0.897;2.625;-108.643;-22.827
0;-0.317;-0.172;0.768;7.507;-85.449;-10.986
0;-0.274;-0.194;0.736;9.583;-51.819;3.723
0;-0.188;-0.239;0.71;4.333;-13.123;17.822
0;-0.098;-0.3;0.73;-13.672;20.264;25.574
0;-0.019;-0.326;0.816;-35.461;41.748;27.344
0;0.013;-0.324;0.913;-48.645;50.964;25.513
0;0.003;-0.355;0.982;-51.636;49.255;16.907
0;-0.03;-0.363;1.013;-49.377;42.664;6.836
0;-0.06;-0.352;0.929;-44.556;33.875;-2.502
0;-0.618;-1.035;2.106;-34.119;-1.465;-7.507
0;-0.024;-0.342;3.212;-9.949;-30.945;17.944
0;0.179;0.256;1.896;-26.367;-38.025;12.512
0;-0.074;-0.076;0.834;-16.418;-43.213;-26.489
0;-0.072;-0.363;0.343;15.991;-36.682;-33.325
0;-0.312;-0.454;0.486;23.437;-33.02;-25.208
0;-0.133;-0.199;0.408;1.709;-7.69;-9.583
0;-0.046;-0.143;0.397;-13.733;2.197;0.122
0;-0.204;-0.374;0.809;-16.174;5.371;-1.831
0;-0.198;-0.414;1.327;-21.667;5.066;2.197
0;-0.074;-0.133;1.544;-33.752;-5.859;8.362
0;-0.084;-0.095;1.271;-26.978;-14.709;1.038
0;-0.125;-0.247;0.976;-2.991;-15.137;-9.216
0;-0.108;-0.317;0.706;6.531;-4.761;-11.475
0;-0.143;-0.296;0.722;4.211;-3.235;-7.69
0;-0.178;-0.252;0.892;0.183;-4.272;-3.54
0;-0.18;-0.221;1.022;-0.183;-3.967;-0.854
0;-0.191;-0.22;1.074;0.977;-6.531;-1.099
0;-0.19;-0.221;1.006;2.136;-5.615;-2.258
0;-0.19;-0.235;0.92;2.197;-1.465;-3.662
0;-0.206;-0.249;0.876;0.977;2.686;-3.967
0;-0.216;-0.256;0.894;0.366;4.028;-2.136
0;-0.214;-0.256;0.936;-1.343;2.075;-0.244
0;-0.205;-0.268;0.952;-2.93;-3.174;0.427
0;-0.197;-0.271;0.952;-2.625;-10.62;0.122
0;-0.214;-0.27;0.931;-1.892;-12.878;-1.343
0;-0.237;-0.253;0.933;-1.282;-9.766;-2.258
0;-0.256;-0.232;0.941;-0.549;-3.601;-1.953
0;-0.249;-0.236;0.945;-0.061;0.977;-0.549
0;-0.23;-0.247;0.954;-0.183;3.479;1.526
0;-0.201;-0.262;0.944;0;3.235;2.502
0;-0.182;-0.272;0.942;0.732;1.099;2.38
0;-0.174;-0.271;0.942;1.099;-0.671;2.014
0;-0.162;-0.273;0.943;1.465;-2.258;1.892
0;-0.146;-0.266;0.935;1.526;-3.357;1.648
0;-0.148;-0.267;0.94;0.916;-4.761;0.671
0;-0.155;-0.259;0.955;-0.366;-6.165;-0.122
0;-0.161;-0.254;0.947;0.122;-3.906;-0.732
0;-0.182;-0.25;0.933;0.916;-0.854;-1.77
0;-0.195;-0.243;0.933;-0.671;0.244;-2.747
0;-0.213;-0.232;0.934;-3.113;-0.916;-2.869
0;-0.215;-0.236;0.946;-2.808;-3.357;-2.197
0;-0.21;-0.231;0.941;-1.343;-4.639;-1.099
0;0.156;-0.305;2.224;78.125;67.627;60.242
0;0.238;-0.312;2.256;93.445;75.256;48.218
0;0.293;-0.279;2.285;109.863;73.303;31.982
0;0.333;-0.253;2.168;123.108;66.895;13.184
0;0.239;-0.161;2.23;138.977;45.776;-1.709
0;0.253;-0.123;2.1;157.715;20.203;-9.583
0;0.269;-0.055;1.943;177.795;-1.892;-13.184
0;0.24;0.013;1.811;195.862;-10.559;-20.203
0;0.243;0.017;1.605;213.867;-11.597;-29.419
0;0.263;0.074;1.29;223.816;-10.315;-39.063
0;0.216;0;1.242;232.422;-18.555;-42.236
0;0.236;-0.03;1.246;229.858;-27.588;-36.56
0;0.214;0.028;1.162;215.576;-25.818;-35.767
0;0.181;-0.017;1.186;212.952;-21.057;-37.476
0;0.182;-0.025;1.196;218.384;-22.949;-36.56
0;0.22;-0.004;1.163;224.731;-25.757;-36.621
0;0.256;0.048;1.045;235.596;-29.541;-42.175
0;0.198;-0.022;1.003;252.686;-37.415;-48.279
0;0.255;-0.099;0.731;259.155;-43.03;-50.293
0;0.221;-0.154;0.682;253.845;-52.795;-55.176
0;0.134;-0.168;0.64;242.065;-61.157;-63.843
0;0.035;-0.109;0.622;233.276;-66.528;-70.801
0;0.003;-0.087;0.529;233.948;-71.655;-72.632
0;-0.049;-0.099;0.4;237.366;-76.477;-73.73
0;-0.133;-0.083;0.315;240.845;-77.454;-74.341
0;-0.148;-0.153;0.189;242.92;-73.914;-72.266
0;-0.211;-0.26;-0.015;237.915;-70.557;-69.458
0;-0.277;-0.3;-0.136;235.107;-63.721;-67.017
0;-0.282;-0.307;-0.257;232.483;-49.438;-64.88
0;-0.311;-0.3;-0.379;222.9;-37.292;-62.012
0;-0.363;-0.293;-0.503;218.506;-26.123;-56.335
0;-0.378;-0.289;-0.601;219.91;-13.611;-51.88
0;-0.364;-0.286;-0.736;217.407;-4.639;-53.162
0;-0.41;-0.295;-0.96;206.787;-6.409;-57.8
0;-0.534;-0.335;-1.122;198.364;-18.188;-59.082
0;-0.581;-0.313;-1.298;187.744;-33.02;-56.152
0;-0.688;-0.299;-1.438;166.077;-50.232;-54.932
0;-0.697;-0.218;-1.717;145.752;-72.571;-53.467
0;-0.713;-0.118;-2.001;127.38;-109.375;-51.758
0;-0.837;-0.109;-2.122;110.535;-153.992;-48.34
0;-0.901;-0.18;-2.172;96.191;-184.082;-40.222
0;-0.872;-0.247;-2.198;77.698;-182.068;-30.029
0;-0.903;-0.403;-2.078;50.72;-151.062;-21.118
0;-0.864;-0.568;-1.865;15.869;-99.304;-7.935
0;-0.743;-0.596;-1.584;-19.287;-37.598;12.695
0;-0.572;-0.546;-1.316;-44.25;19.226;33.325
0;-0.445;-0.622;-1.071;-60.181;59.265;44.189
0;-0.317;-0.718;-0.926;-75.317;83.191;48.096
0;-0.223;-0.784;-0.803;-88.44;87.708;47.424
0;-0.152;-0.818;-0.709;-94.299;76.477;43.274
0;-0.125;-0.832;-0.674;-95.642;59.387;34.546
0;-0.118;-0.836;-0.651;-95.886;42.603;21.729
0;-0.124;-0.794;-0.672;-100.037;27.405;8.24
0;-0.154;-0.771;-0.685;-108.276;9.705;-4.395
0;-0.195;-0.738;-0.65;-115.906;-7.08;-15.198
0;-0.236;-0.705;-0.59;-121.033;-12.878;-23.865
0;-0.254;-0.569;-0.556;-125.61;-3.662;-29.846
0;-0.277;-0.438;-0.566;-130.31;12.085;-31.128
0;-0.339;-0.37;-0.515;-135.742;21.606;-26.123
0;-0.344;-0.367;-0.487;-147.339;30.273;-15.808
0;-0.313;-0.403;-0.457;-163.391;37.109;-7.263
0;-0.303;-0.435;-0.329;-176.941;40.527;-4.456
0;-0.286;-0.458;-0.228;-188.11;44.739;-8.911
0;-0.278;-0.478;-0.149;-195.068;49.133;-18.555
0;-0.286;-0.489;-0.069;-195.557;54.626;-30.212
0;-0.286;-0.37;-0.018;-193.909;65.43;-40.527
0;-0.314;-0.283;0.068;-190.735;76.233;-45.898
0;-0.358;-0.187;0.178;-186.584;87.646;-44.067
0;-0.459;-0.032;0.306;-180.664;103.577;-32.288
0;-0.516;0.175;0.491;-175.964;115.723;-6.104
0;-0.483;0.101;0.496;-181.274;123.23;27.527
0;-0.361;-0.1;0.511;-201.843;108.093;61.096
0;-0.267;-0.218;0.646;-231.201;76.538;80.505
0;-0.207;-0.257;0.875;-249.512;50.842;81.36
0;-0.163;-0.327;1.045;-246.216;41.016;68.115
0;-0.17;-0.383;1.179;-225.647;47.974;48.828
0;-0.155;-0.354;1.23;-190.918;78.796;33.63
0;-0.123;-0.362;1.152;-153.259;123.962;26.855
0;-0.08;-0.295;1.054;-130.798;158.02;28.748
0;-0.13;0.02;1.165;-126.831;167.969;37.598
0;-0.165;0.255;1.319;-135.925;152.283;65.186
0;-0.003;-0.001;1.377;-156.921;118.164;90.637
0;0.136;-0.185;1.488;-181.152;74.707;104.736
0;0.233;-0.328;1.619;-196.96;37.17;102.722
0;0.272;-0.479;1.803;-198.242;13.062;83.984
0;0.274;-0.504;1.843;-176.453;4.517;57.495
0;0.287;-0.547;1.815;-139.893;7.202;30.457
0;0.318;-0.591;1.628;-102.722;21.24;6.226
0;0.298;-0.601;1.561;-81.482;38.452;-11.536
0;0.223;-0.436;1.46;-73.669;62.5;-19.287
0;0.104;-0.317;1.461;-75.623;81.848;-17.151
0;0.193;-0.243;1.568;-84.717;88.196;-9.216
0;0.104;-0.063;1.082;-97.351;108.154;-15.747
0;0.163;-0.459;1.208;-114.441;48.828;-21.729
0;-0.083;-0.344;1.703;-111.877;2.319;-1.892
0;-0.037;-0.364;1.71;-102.6;6.042;-2.014
0;0.014;-0.603;1.564;-84.656;26.428;-13.245
0;0.022;-0.512;0.829;-65.43;41.443;-12.756
0;0.154;-0.584;0.626;-55.969;-2.686;-6.836
0;0.155;-0.441;0.724;-53.528;-60.303;-6.287
0;-0.009;-0.339;0.962;-53.589;-94.543;-17.7
0;-0.16;-0.205;1.195;-45.044;-89.294;-17.273
0;-0.181;-0.084;1.189;-34.851;-45.898;-3.784
0;-0.081;-0.213;1.071;-32.654;-3.54;7.141
0;0.051;-0.295;1.008;-36.072;16.968;19.897
0;0.117;-0.354;0.989;-45.654;18.127;23.315
0;0.082;-0.406;1.159;-55.969;2.686;15.808
0;-0.006;-0.565;1.234;-62.195;-9.277;6.958
0;0.141;-0.386;1.781;-85.083;-56.213;-1.038
0;0.096;-0.116;2.463;-101.929;-124.512;-12.268
0;-0.15;-0.234;2.075;-64.636;-113.281;-31.677
0;-0.196;-0.2;1.136;10.559;-46.509;-31.616
0;-0.257;-0.263;0.666;47.363;-10.864;-19.043
0;-0.12;-0.274;0.429;48.828;16.907;-1.038
0;-0.012;-0.205;0.268;25.94;26.001;9.949
0;-0.06;-0.233;0.492;-6.775;5.005;4.211
0;-0.114;-0.167;0.886;-31.86;-19.897;-5.432
0;-0.119;-0.198;1.111;-44.373;-32.043;-13.611
0;-0.156;-0.3;1.21;-45.837;-31.982;-21.118
0;0.315;-0.301;1.992;121.46;54.749;20.142
0;0.342;-0.258;1.983;134.949;45.288;9.46
0;0.326;-0.208;1.931;147.522;33.813;-2.136
0;0.314;-0.171;1.875;161.316;23.499;-12.207
0;0.258;-0.099;1.802;174.377;14.282;-19.836
0;0.253;-0.065;1.688;183.594;9.766;-26.001
0;0.244;-0.099;1.633;188.477;-2.258;-27.649
0;0.263;-0.111;1.539;191.345;-13.489;-28.87
0;0.273;-0.052;1.514;199.829;-15.747;-31.921
0;0.266;-0.036;1.453;209.595;-9.949;-35.706
0;0.258;-0.079;1.328;212.646;-5.798;-39.49
0;0.259;-0.093;1.136;207.642;-9.277;-43.762
0;0.189;-0.062;1.031;203.796;-24.353;-46.875
0;0.141;-0.042;0.997;208.374;-42.969;-44.495
0;0.152;-0.079;0.878;213.684;-54.81;-39.001
0;0.184;-0.078;0.752;214.6;-62.134;-36.682
0;0.211;-0.138;0.697;210.693;-69.763;-35.828
0;0.18;-0.165;0.638;200.256;-73.059;-37.903
0;0.093;-0.161;0.648;197.51;-68.909;-42.725
0;0.078;-0.239;0.615;201.294;-61.646;-43.518
0;0.051;-0.231;0.497;202.759;-55.725;-45.532
0;-0.022;-0.221;0.46;207.397;-54.321;-48.95
0;-0.025;-0.307;0.345;209.229;-57.19;-47.607
0;-0.038;-0.324;0.212;201.111;-62.012;-48.218
0;-0.116;-0.365;0.266;193.481;-63.843;-48.889
0;-0.109;-0.467;0.182;187.012;-58.594;-46.814
0;-0.167;-0.566;0.146;176.758;-55.908;-46.143
0;-0.197;-0.706;0.191;167.175;-52.002;-44.556
0;-0.19;-0.746;0.189;158.63;-41.321;-46.326
0;-0.173;-0.742;0.217;157.776;-29.785;-48.706
0;-0.146;-0.754;0.159;162.598;-23.132;-52.185
0;-0.128;-0.692;-0.006;170.532;-21.301;-60.608
0;-0.199;-0.559;-0.018;181.152;-18.738;-72.693
0;-0.282;-0.373;-0.114;194.824;-11.047;-78.857
0;-0.375;-0.378;-0.31;194.702;-7.385;-82.458
0;-0.46;-0.44;-0.515;187.439;-13.672;-84.839
0;-0.523;-0.354;-0.71;181.458;-25.513;-82.886
0;-0.608;-0.332;-0.861;174.438;-39.795;-81.421
0;-0.703;-0.256;-1.153;175.842;-47.302;-77.881
0;-0.724;-0.213;-1.526;184.448;-48.035;-68.237
0;-0.588;-0.023;-1.793;181.58;-46.143;-47.241
0;-0.926;0.013;-2.217;171.204;-34.607;-12.817
0;-1.278;0.098;-2.408;139.465;-36.194;14.648
0;-1.632;-0.112;-2.165;80.566;-52.185;13.855
0;-1.402;-0.399;-1.83;14.954;-51.208;7.263
0;-1.057;-0.501;-1.678;-34.668;-29.48;21.179
0;-0.851;-0.576;-1.312;-68.298;-13.855;41.382
0;-0.695;-0.716;-0.894;-93.323;-1.892;50.354
0;-0.531;-0.777;-0.664;-108.826;14.404;57.739
0;-0.376;-0.868;-0.502;-107.361;22.461;64.026
0;-0.234;-0.919;-0.325;-99.548;23.865;63.477
0;-0.128;-0.912;-0.226;-96.985;21.667;56.091
0;-0.082;-0.877;-0.197;-95.703;13.489;45.288
0;-0.091;-0.842;-0.168;-90.881;0.122;34.119
0;-0.159;-0.843;-0.165;-85.999;-12.512;23.621
0;-0.236;-0.829;-0.219;-83.801;-23.499;15.442
0;-0.309;-0.798;-0.266;-81.97;-33.203;11.353
0;-0.357;-0.766;-0.32;-83.069;-41.626;10.742
0;-0.379;-0.764;-0.381;-90.332;-48.523;12.085
0;-0.373;-0.751;-0.378;-99.67;-53.223;13.55
0;-0.361;-0.733;-0.326;-111.633;-52.002;12.573
0;-0.325;-0.733;-0.296;-123.84;-43.091;8.545
0;-0.318;-0.68;-0.219;-132.324;-29.541;2.991
0;-0.346;-0.618;-0.117;-134.949;-14.099;-0.732
0;-0.331;-0.65;-0.138;-135.864;1.16;-1.648
0;-0.315;-0.613;-0.114;-137.634;9.827;-1.892
0;-0.372;-0.536;-0.037;-140.442;11.963;-2.991
0;-0.44;-0.529;-0.003;-140.381;11.597;-2.502
0;-0.454;-0.533;0.021;-138.794;9.094;1.282
0;-0.439;-0.548;0.045;-142.761;5.798;5.249
0;-0.4;-0.568;0.067;-152.649;3.845;5.005
0;-0.371;-0.571;0.083;-164.185;3.113;1.221
0;-0.359;-0.563;0.11;-172.485;2.319;-5.31
0;-0.355;-0.537;0.172;-175.232;1.282;-13.794
0;-0.372;-0.484;0.243;-175.293;2.014;-21.301
0;-0.444;-0.276;0.382;-171.814;4.883;-21.362
0;-0.526;-0.202;0.453;-165.344;13.428;-11.841
0;-0.456;-0.207;0.488;-164.185;21.301;4.883
0;-0.385;-0.2;0.555;-172.852;21.973;24.841
0;-0.325;-0.255;0.624;-184.57;16.968;39.429
0;-0.266;-0.315;0.691;-193.298;12.024;46.143
0;-0.262;-0.348;0.753;-194.153;5.249;46.021
0;-0.269;-0.396;0.786;-186.279;2.258;41.077
0;-0.272;-0.442;0.785;-175.049;5.859;34.79
0;-0.236;-0.439;0.781;-167.48;15.93;30.212
0;-0.199;-0.413;0.828;-164.795;32.349;30.762
0;-0.113;-0.334;0.872;-167.419;52.002;35.217
0;-0.095;-0.012;0.948;-167.48;68.115;43.518
0;-0.198;0.162;1.252;-155.029;70.679;59.875
0;-0.071;0.161;1.518;-152.039;76.355;84.656
0;0.091;0.029;1.634;-167.908;90.82;99.304
0;0.235;-0.169;1.714;-185.425;99.426;97.961
0;0.365;-0.459;1.786;-191.589;90.454;82.581
0;0.371;-0.641;1.916;-183.899;65.247;59.387
0;0.29;-0.659;1.964;-168.091;36.377;33.02
0;0.276;-0.635;1.857;-146.545;14.221;6.592
0;0.137;-0.588;1.713;-126.526;3.906;-9.033
0;0.032;-0.553;1.528;-109.924;7.263;-13.672
0;-0.004;-0.465;1.333;-104.553;23.132;-12.329
0;0.166;-0.452;1.233;-108.887;49.622;-12.573
0;-0.116;-0.41;1.005;-120.728;97.168;-15.32
0;0.212;-0.488;0.551;-141.113;103.821;-11.353
0;0.063;-0.197;0.723;-150.269;75.317;19.531
0;0.056;0.013;1.001;-155.457;56.519;18.311
0;0.111;-0.085;1.315;-147.278;57.922;7.385
0;0.041;0.021;1.356;-150.085;62.988;15.442
0;-0.015;0.21;1.317;-148.254;64.331;20.935
0;0.092;0.178;1.082;-136.23;52.612;13.184
0;0.102;0.19;0.967;-114.685;2.441;15.747
0;0.032;0.216;1.031;-82.092;-50.598;22.095
0;-0.05;0.106;1.148;-54.382;-86.365;16.602
0;-0.131;-0.102;1.206;-38.33;-87.097;5.737
0;-0.322;-0.237;1.238;-37.231;-72.144;0.916
0;0.631;-0.594;2.387;26.794;-121.826;3.845
0;-0.049;0.266;2.929;88.318;-223.511;-1.16
0;-0.56;-0.342;2.314;18.677;-151.978;-33.142
0;-0.064;-0.071;1.067;-66.65;37.109;-40.527
0;0.03;0.155;0.285;-72.388;105.957;-19.165
0;0.078;0.12;0.302;-33.02;76.782;-14.221
0;0.123;-0.284;2.339;171.143;58.838;-41.138
0;0.256;-0.19;2.427;186.157;62.5;-20.081
0;0.374;-0.17;2.232;183.655;66.101;-18.738
0;0.52;-0.299;1.85;187.256;48.767;-25.574
0;0.484;-0.315;1.908;208.374;-0.061;-20.508
0;0.407;-0.285;1.907;221.008;-42.847;-14.954
0;0.325;-0.238;1.862;230.286;-66.04;-14.709
0;0.26;-0.083;1.673;236.206;-66.65;-23.193
0;0.189;0.061;1.549;251.953;-66.528;-28.259
0;0.176;0.071;1.443;275.452;-78.491;-23.376
0;0.151;-0.011;1.259;287.659;-82.092;-18.433
0;0.129;-0.058;1.08;289.124;-81.238;-18.005
0;0.135;-0.166;0.958;283.936;-77.026;-21.179
0;0.151;-0.17;0.805;269.592;-69.397;-28.564
0;0.128;-0.104;0.869;261.108;-66.528;-33.325
0;0.158;-0.067;0.786;260.803;-55.176;-34.912
0;0.175;-0.033;0.704;262.634;-40.588;-37.72
0;0.184;-0.14;0.593;260.559;-39.49;-38.147
0;0.157;-0.274;0.532;247.986;-50.293;-39.856
0;0.067;-0.26;0.514;233.093;-56.152;-47.241
0;0.024;-0.228;0.531;232.727;-55.176;-54.932
0;0.023;-0.239;0.428;240.967;-48.157;-60.608
0;0.004;-0.223;0.345;248.474;-39.49;-67.627
0;-0.027;-0.261;0.265;251.892;-34.119;-70.984
0;-0.126;-0.355;0.07;244.995;-31.189;-68.726
0;-0.272;-0.512;-0.015;230.408;-32.349;-65.674
0;-0.312;-0.637;-0.029;214.172;-31.86;-62.683
0;-0.264;-0.628;-0.002;201.172;-20.02;-60.425
0;-0.252;-0.626;-0.083;193.726;-5.92;-62.195
0;-0.246;-0.615;-0.173;189.392;-4.639;-66.772
0;-0.275;-0.517;-0.196;185.669;-10.315;-75.195
0;-0.297;-0.386;-0.29;184.692;-14.709;-84.778
0;-0.351;-0.287;-0.473;186.157;-22.461;-93.506
0;-0.449;-0.259;-0.613;187.256;-37.781;-98.999
0;-0.507;-0.213;-0.73;184.814;-49.072;-98.083
0;-0.544;-0.171;-0.962;179.504;-52.429;-95.337
0;-0.565;-0.164;-1.222;172.668;-63.293;-91.736
0;-0.559;-0.123;-1.477;167.48;-75.684;-85.938
0;-0.512;-0.097;-1.707;171.326;-82.947;-77.637
0;-0.701;-0.092;-1.892;166.077;-79.041;-59.143
0;-0.687;0.167;-2.161;145.02;-76.782;-38.33
0;-0.691;0.422;-2.305;103.638;-87.036;-30.823
0;-0.957;0.176;-2.177;55.176;-106.384;-40.161
0;-1.008;-0.212;-1.799;8.179;-119.202;-47.913
0;-0.908;-0.375;-1.535;-36.133;-102.417;-29.48
0;-0.721;-0.35;-1.298;-69.092;-68.97;-6.531
0;-0.623;-0.44;-1.119;-88.257;-39.612;4.517
0;-0.558;-0.57;-0.969;-95.52;-18.921;8.24
0;-0.497;-0.689;-0.821;-91.919;-1.526;11.536
0;-0.426;-0.726;-0.782;-88.013;18.372;13.855
0;-0.374;-0.758;-0.759;-89.539;31.494;13.367
0;-0.326;-0.74;-0.723;-95.642;35.706;11.536
0;-0.297;-0.718;-0.681;-106.445;30.396;9.155
0;-0.299;-0.693;-0.634;-117.676;17.883;5.127
0;-0.33;-0.656;-0.587;-122.498;6.042;1.099
0;-0.356;-0.598;-0.565;-121.704;3.479;-2.075
0;-0.368;-0.555;-0.582;-123.108;7.568;-4.456
0;-0.355;-0.518;-0.569;-130.432;12.756;-5.127
0;-0.348;-0.5;-0.541;-143.066;16.235;-5.798
0;-0.341;-0.507;-0.482;-157.349;18.066;-8.728
0;-0.323;-0.519;-0.411;-171.509;19.348;-13.611
0;-0.31;-0.542;-0.367;-181.763;21.912;-20.569
0;-0.314;-0.509;-0.247;-185.242;26.672;-29.114
0;-0.349;-0.365;-0.155;-182.007;38.635;-34.851
0;-0.398;-0.297;-0.091;-172.241;50.232;-33.508
0;-0.451;-0.27;-0.024;-165.649;60.059;-25.757
0;-0.495;-0.235;0.008;-166.809;72.571;-12.329
0;-0.503;-0.261;0.062;-173.523;82.703;3.296
0;-0.472;-0.296;0.123;-184.57;88.623;18.982
0;-0.433;-0.328;0.212;-195.312;91.919;30.396
0;-0.374;-0.377;0.284;-202.087;96.008;34.729
0;-0.306;-0.416;0.334;-205.322;102.478;32.532
0;-0.282;-0.43;0.422;-204.529;110.107;24.475
0;-0.265;-0.42;0.495;-197.632;121.216;15.564
0;-0.28;-0.423;0.531;-187.805;130.981;10.254
0;-0.295;-0.332;0.579;-179.993;134.277;13.184
0;-0.321;-0.258;0.597;-173.157;136.475;22.705
0;-0.313;-0.089;0.852;-171.021;134.583;39.307
0;-0.29;0.109;1.012;-177.917;126.77;60.242
0;-0.284;0.094;1.123;-186.707;113.892;83.313
0;-0.217;-0.05;1.294;-193.787;102.722;104.37
0;-0.106;-0.199;1.397;-203.369;94.36;117.615
0;-0.026;-0.319;1.563;-206.97;89.661;119.873
0;0.08;-0.487;1.725;-200.928;90.759;115.112
0;0.16;-0.643;1.76;-189.941;97.656;101.257
0;0.24;-0.783;1.677;-176.636;107.361;74.524
0;0.316;-0.827;1.568;-171.448;112.061;39.063
0;0.303;-0.82;1.463;-180.176;111.267;8.728
0;0.242;-0.937;1.229;-191.711;101.563;7.263
0;0.069;-0.925;1.458;-199.402;76.721;44.189
0;-0.103;-0.726;1.57;-231.812;74.951;97.9
0;-0.033;-0.393;1.605;-276.001;101.013;145.325
0;0.083;-0.134;1.632;-295.593;126.709;178.101
0;0.125;0.11;1.753;-286.133;141.663;193.115
0;0.382;0.376;1.094;-259.827;157.227;178.162
0;0.617;0.152;1.054;-209.045;104.98;147.949
0;0.241;0.277;1.159;-153.198;49.316;134.949
0;0.249;0.075;1.446;-130.371;16.113;104.37
0;0.313;0.148;1.377;-133.179;11.047;91.064
0;0.281;0.149;1.187;-134.583;13.184;88.135
0;0.322;0.078;1.162;-117.249;0.305;77.698
0;0.315;0.165;1.079;-88.501;-8.728;72.144
0;0.345;0.21;0.917;-73.792;-22.034;54.81
0;0.314;0.203;0.995;-50.598;-36.621;39.49
0;0.235;0.117;1.124;-38.208;-32.898;22.095
0;0.273;0.131;1.298;-31.311;-9.277;5.981
0;0.278;0.166;1.253;-25.757;21.973;-8.789
0;0.33;0.093;1.191;-13.367;41.016;-23.01
0;0.349;0.024;0.976;1.587;51.331;-36.682
0;0.327;0.054;0.519;13.977;42.114;-45.959
0;0.251;0.123;0.565;33.813;-12.268;-44.861
0;0.139;0.176;0.888;50.781;-85.083;-40.405
0;-0.005;0.145;0.965;52.063;-124.756;-41.321
0;-0.178;-0.098;1.079;53.162;-147.278;-43.518
0;-0.21;-0.138;1.237;50.293;-148.682;-33.997
0;-0.202;-0.115;1.475;46.265;-123.962;-22.644
0;-0.338;-0.338;1.381;42.542;-78.674;-20.63
0;-0.246;-0.015;1.46;13.733;-23.437;-13.977
0;-0.079;-0.21;1.106;-3.845;34.851;-18.982
0;-0.839;-0.476;-1.958;62.073;-93.689;-48.157
0;-0.901;-0.524;-1.866;23.254;-135.681;-36.194
0;-0.938;-0.544;-1.784;-9.094;-157.166;-17.09
0;-0.948;-0.645;-1.725;-23.621;-146.118;-0.061
0;-0.906;-0.756;-1.602;-34.119;-105.164;10.681
0;-0.808;-0.757;-1.411;-49.744;-45.776;18.127
0;-0.703;-0.712;-1.131;-63.171;9.094;24.353
0;-0.564;-0.688;-0.906;-72.571;50.171;30.457
0;-0.457;-0.779;-0.695;-81.543;74.036;35.217
0;-0.305;-0.825;-0.539;-91.492;81.787;39.917
0;-0.205;-0.81;-0.402;-100.769;71.35;40.771
0;-0.168;-0.836;-0.298;-106.384;49.683;35.217
0;-0.134;-0.813;-0.264;-107.788;29.968;26.794
0;-0.16;-0.789;-0.278;-108.826;15.137;17.212
0;-0.238;-0.765;-0.29;-108.948;3.113;9.033
0;-0.276;-0.727;-0.33;-109.558;-1.831;4.272
0;-0.312;-0.714;-0.359;-111.572;0.977;0.305
0;-0.314;-0.693;-0.389;-116.333;11.719;-3.113
0;-0.284;-0.69;-0.406;-126.77;26.733;-6.104
0;-0.242;-0.708;-0.388;-139.465;37.415;-8.057
0;-0.185;-0.701;-0.333;-151.489;44.556;-9.094
0;-0.162;-0.618;-0.256;-162.659;48.889;-11.536
0;-0.18;-0.503;-0.162;-169.8;50.171;-12.939
0;-0.193;-0.414;-0.027;-173.035;47.852;-13.367
0;-0.216;-0.365;0.056;-177.49;46.387;-16.052
0;-0.265;-0.228;0.124;-179.016;45.898;-19.348
0;-0.417;-0.128;0.312;-172.668;43.091;-15.686
0;-0.448;-0.136;0.406;-171.692;47.852;-7.446
0;-0.428;-0.159;0.441;-177.795;56.213;4.883
0;-0.371;-0.17;0.483;-184.509;56.274;17.883
0;-0.301;-0.258;0.574;-191.162;48.828;25.574
0;-0.209;-0.377;0.598;-200.195;44.067;26.428
0;-0.118;-0.457;0.643;-207.275;39.734;21.057
0;-0.051;-0.532;0.699;-209.412;36.316;9.216
0;0.022;-0.542;0.687;-208.069;35.828;-6.47
0;0.022;-0.422;0.7;-199.158;33.447;-21.851
0;-0.141;-0.234;0.793;-180.42;19.653;-26.733
0;-0.289;-0.088;0.965;-162.048;-1.587;-20.142
0;-0.336;0.008;1.106;-152.039;-12.939;-11.169
0;-0.452;0.054;1.267;-148.804;-8.606;-0.977
0;-0.488;0.021;1.318;-147.217;6.104;10.742
0;-0.395;-0.079;1.208;-151.367;28.381;16.541
0;-0.313;-0.196;1.125;-154.114;42.664;17.517
0;-0.251;-0.28;1.075;-150.208;44.922;13
0;-0.212;-0.401;1.087;-145.081;46.875;2.991
0;-0.154;-0.386;1.048;-142.822;53.162;-7.202
0;-0.081;-0.298;1.029;-136.719;57.434;-14.16
0;-0.014;-0.2;1.19;-120.178;57.373;-14.16
0;0.01;0.085;1.336;-105.286;62.073;-9.033
0;-0.274;0.246;1.598;-88.684;58.167;3.235
0;-0.459;0.246;1.999;-70.923;40.649;29.602
0;-0.36;0.171;2.168;-71.716;40.894;61.218
0;-0.15;-0.021;2.094;-89.783;58.289;80.933
0;0.092;-0.226;1.862;-106.873;62.866;80.566
0;0.205;-0.419;1.763;-109.924;35.034;66.223
0;0.197;-0.491;1.708;-99.915;-7.629;47.607
0;-0.038;-0.436;1.771;-84.778;-46.631;26.672
0;0.212;-0.39;1.011;-70.374;-63.965;2.502
0;0.018;-0.465;1.316;-52.002;-124.084;-12.39
0;-0.222;-0.268;1.212;-33.081;-122.009;-3.723
0;-0.149;-0.241;1.018;-27.222;-90.21;-9.521
0;-0.091;-0.251;0.853;-21.118;-49.744;-16.541
0;-0.132;-0.166;0.77;-18.677;-16.052;-9.521
0;-0.203;0.012;0.763;-23.071;8.728;2.136
0;-0.203;0.097;0.831;-31.555;25.818;6.592
0;-0.207;0.049;0.939;-41.26;34.241;10.986
0;-0.192;-0.02;1.078;-51.575;39.734;15.686
0;-0.182;-0.125;1.202;-59.998;50.72;10.986
0;-0.808;-0.664;3.022;-45.349;65.186;6.47
0;-0.231;-0.101;3.286;6.226;148.193;8.24
0;0.469;0.086;1.289;-12.512;215.698;-3.235
0;0.203;0.007;0.966;-12.817;100.586;-16.602
0;0.127;-0.571;0.789;35.522;12.756;-42.847
0;0.036;-0.439;0.422;62.805;-1.77;-21.179
0;0.017;-0.056;0.173;31.555;-12.329;-0.61
0;-0.038;-0.217;0.475;10.254;-43.518;-17.456
0;-0.15;-0.285;0.628;3.235;-38.33;-20.447
0;-0.293;-0.196;0.79;-6.714;-17.273;-5.066
0;-0.271;-0.21;1.045;-10.315;-1.282;2.747
0;-0.244;-0.186;1.405;-7.812;1.709;4.272
0;-0.249;-0.202;1.542;-1.221;9.155;-2.075
0;-0.155;-0.163;1.189;-2.625;27.161;-8.606
0;-0.152;-0.175;0.854;-3.54;23.315;-13.611
0;-0.171;-0.185;0.734;1.709;1.953;-12.207
0;-0.17;-0.226;0.727;3.235;-15.32;-8.972
0;-0.193;-0.238;0.879;3.296;-25.208;-2.563
0;-0.184;-0.214;0.993;1.465;-21.973;2.136
0;-0.167;-0.214;1.037;-0.793;-14.648;2.258
0;-0.175;-0.198;1.023;-1.282;-7.507;2.38
0;-0.15;-0.189;0.99;-3.479;-1.892;1.648
0;-0.121;-0.195;0.948;-6.897;0.916;-0.183
0;-0.104;-0.193;0.934;-9.766;-0.854;-1.038
0;-0.121;-0.189;0.951;-8.911;-5.31;-0.854
0;-0.137;-0.198;0.967;-6.287;-10.376;-0.305
0;-0.139;-0.228;0.963;-3.967;-14.16;0.244
0;-0.122;-0.222;0.951;-2.563;-15.015;1.404
0;-0.138;-0.193;0.961;-2.502;-12.878;1.648
0;-0.157;-0.17;0.984;-2.075;-7.935;1.221
0;-0.156;-0.17;0.991;-1.221;-1.831;0.427
0;-0.137;-0.177;0.978;-0.122;3.296;-0.305
0;-0.126;-0.184;0.965;0.854;4.944;-1.16
0;-0.132;-0.17;0.946;1.587;2.991;-1.953
0;-0.156;-0.17;0.95;1.648;-1.038;-2.197
0;-0.162;-0.166;0.948;0.732;-4.517;-1.587
0;-0.168;-0.157;0.955;-0.61;-7.202;-0.427
0;-0.174;-0.169;0.967;-0.732;-7.568;0.488
0;-0.166;-0.184;0.966;-1.221;-5.554;0.244
0;-0.167;-0.186;0.968;-1.709;-3.54;-0.61
0;-0.18;-0.19;0.96;-1.038;-2.014;-1.16
0;-0.177;-0.201;0.927;-1.282;-0.671;-1.099
0;-0.172;-0.194;0.928;-2.014;-0.916;-0.366
0;-0.167;-0.201;0.959;-1.526;-2.38;0.366
0;-0.155;-0.199;0.97;-0.488;-2.502;0.671
0;-0.153;-0.187;0.966;0;-2.686;0.671
0;-0.159;-0.18;0.976;0.305;-3.967;0.427
0;-0.165;-0.181;0.976;-0.122;-5.066;0.122
0;-0.161;-0.174;0.969;-0.671;-4.7;0.549
0;-0.151;-0.181;0.963;-1.16;-4.089;0.61
0;-0.143;-0.191;0.958;-1.282;-3.662;0.183
0;0.177;-0.309;2.368;49.194;72.449;47.302
0;0.239;-0.275;2.419;64.209;50.964;34.729
0;0.252;-0.18;2.453;88.135;26.917;26.001
0;0.221;-0.091;2.435;117.859;6.287;23.193
0;0.263;-0.023;2.242;143.372;-3.662;22.888
0;0.31;0.112;1.988;163.696;-12.695;17.456
0;0.218;0.158;1.915;183.777;-28.992;11.414
0;0.207;0.194;1.783;194.153;-41.992;11.719
0;0.233;0.24;1.657;197.388;-50.11;13.977
0;0.216;0.348;1.629;204.041;-57.251;15.564
0;0.185;0.309;1.661;215.088;-62.744;16.235
0;0.231;0.151;1.589;220.52;-60.913;12.573
0;0.308;0.099;1.402;217.407;-51.514;3.967
0;0.325;0.101;1.327;218.567;-51.453;-6.042
0;0.302;0.015;1.246;220.032;-60.791;-14.954
0;0.328;-0.013;1.118;220.032;-68.97;-21.667
0;0.262;0.121;1.061;229.065;-72.815;-26.917
0;0.184;0.156;0.92;246.338;-72.876;-30.09
0;0.147;0.056;0.761;256.836;-72.266;-27.466
0;0.109;-0.138;0.599;254.089;-66.223;-28.076
0;0.037;-0.275;0.414;242.92;-61.279;-33.447
0;-0.048;-0.391;0.386;239.929;-65.735;-33.997
0;-0.065;-0.511;0.314;238.403;-66.101;-29.724
0;-0.071;-0.586;0.129;234.436;-57.617;-29.175
0;-0.11;-0.582;0.025;238.77;-48.645;-29.602
0;-0.089;-0.457;-0.092;243.713;-32.166;-29.114
0;-0.009;-0.354;-0.336;238.342;-13.611;-32.166
0;-0.021;-0.36;-0.511;226.501;-14.709;-40.344
0;-0.127;-0.251;-0.582;217.773;-25.269;-45.532
0;-0.321;-0.143;-0.59;213.379;-29.602;-47.546
0;-0.452;-0.181;-0.768;205.444;-24.231;-49.927
0;-0.485;-0.232;-0.924;191.223;-17.639;-48.157
0;-0.529;-0.287;-1.02;173.096;-15.625;-40.283
0;-0.543;-0.342;-1.141;149.658;-18.372;-34.241
0;-0.519;-0.387;-1.235;133.179;-28.931;-30.762
0;-0.499;-0.408;-1.37;122.131;-43.762;-27.466
0;-0.455;-0.37;-1.658;106.567;-60.486;-27.954
0;-0.562;-0.287;-1.922;97.168;-80.322;-29.358
0;-0.773;-0.423;-2.087;88.501;-92.834;-35.339
0;-0.883;-0.514;-2.215;67.749;-79.529;-33.203
0;-0.915;-0.546;-2.114;34.119;-53.711;-22.278
0;-0.824;-0.631;-1.86;-3.174;-25.391;-8.24
0;-0.693;-0.679;-1.552;-33.264;2.625;5.798
0;-0.588;-0.722;-1.271;-55.603;25.208;15.015
0;-0.531;-0.772;-1;-73.181;36.682;19.043
0;-0.475;-0.815;-0.783;-83.557;41.138;23.987
0;-0.379;-0.847;-0.638;-90.332;41.382;29.175
0;-0.288;-0.89;-0.543;-94.788;35.95;31.799
0;-0.221;-0.937;-0.477;-98.694;26.611;30.518
0;-0.161;-0.97;-0.44;-100.342;18.005;25.391
0;-0.099;-0.974;-0.437;-101.074;13.672;17.212
0;-0.076;-0.895;-0.448;-101.44;11.78;7.69
0;-0.103;-0.767;-0.454;-103.027;12.329;-1.221
0;-0.157;-0.698;-0.453;-106.934;15.991;-6.531
0;-0.13;-0.695;-0.475;-115.723;20.752;-7.507
0;-0.065;-0.753;-0.491;-130.981;21.179;-8.911
0;-0.007;-0.765;-0.422;-147.766;15.503;-15.076
0;0.022;-0.751;-0.332;-159.851;10.925;-28.198
0;0.036;-0.586;-0.235;-165.222;14.526;-46.387
0;-0.073;-0.346;-0.094;-163.94;26.306;-63.965
0;-0.248;-0.162;-0.001;-158.936;43.701;-75.684
0;-0.382;-0.131;0.008;-152.771;61.462;-74.585
0;-0.419;0.033;0.041;-150.33;76.416;-61.646
0;-0.498;-0.066;0.129;-146.912;83.435;-43.274
0;-0.489;-0.139;0.168;-157.227;90.942;-22.095
0;-0.384;-0.235;0.226;-181.396;95.093;2.869
0;-0.273;-0.4;0.32;-210.266;89.111;21.606
0;-0.173;-0.491;0.42;-233.521;79.468;26.733
0;-0.126;-0.575;0.516;-243.103;70.374;15.991
0;-0.101;-0.599;0.575;-237.61;66.406;-3.967
0;-0.039;-0.584;0.546;-223.694;69.885;-26.978
0;0.025;-0.365;0.505;-202.332;77.393;-41.931
0;0.009;0.046;0.531;-169.617;86.426;-43.823
0;-0.181;0.522;0.751;-131.042;89.355;-30.579
0;-0.548;0.899;1.231;-110.046;77.576;0.61
0;-0.744;0.819;1.771;-127.502;76.782;41.87
0;-0.398;0.412;1.604;-200.684;88.074;74.89
0;0.04;0.222;1.499;-273.682;54.443;99.548
0;0.062;0.044;1.902;-289.795;-19.287;108.459
0;0.075;-0.168;2.191;-264.221;-59.265;94.055
0;0.184;-0.293;2.292;-206.848;-39.246;69.824
0;0.354;-0.415;2.132;-140.686;21.79;41.87
0;0.51;-0.483;1.762;-93.14;84.839;14.648
0;0.51;-0.439;1.479;-66.345;116.028;-3.906
0;0.387;-0.234;1.433;-53.162;120.422;-8.118
0;0.177;0.044;1.605;-56.763;115.112;2.502
0;0.076;0.058;1.745;-85.632;105.835;15.259
0;0.337;0.016;1.743;-122.681;78.064;26.855
0;0.092;-0.034;1.544;-136.719;33.325;24.841
0;-0.101;-0.34;2.072;-122.009;-58.411;-1.16
0;-0.488;-0.361;2.141;-86.182;-97.29;-3.967
0;-0.432;-0.217;1.899;-61.157;-93.933;2.38
0;-0.349;-0.192;1.421;-28.564;-78.186;1.648
0;-0.313;-0.189;1.173;-3.479;-72.998;5.981
0;-0.257;-0.116;0.985;9.399;-59.143;13.306
0;-0.151;-0.149;0.859;8.118;-34.18;10.62
0;-0.019;-0.24;0.827;-2.502;-7.874;4.517
0;0.047;-0.294;0.852;-16.724;13.916;2.563
0;0.05;-0.242;0.995;-31.006;30.029;2.563
0;0.058;-0.215;1.104;-42.969;52.429;-3.906
0;0.025;-0.219;1.159;-48.035;70.923;-11.841
0;-0.006;-0.203;1.138;-45.105;80.2;-16.663
0;-0.009;-0.169;1.084;-40.527;83.496;-21.851
0;-0.033;-0.137;1;-34.912;76.233;-25.33
0;-0.119;-0.047;0.919;-32.227;64.941;-24.475
0;-0.114;-0.092;0.763;-37.598;44.006;-22.4
0;-0.147;-0.017;0.718;-39.856;0.916;-10.62
0;-0.217;-0.13;0.916;-40.466;-37.781;-10.62
0;-0.301;-0.226;1.083;-36.804;-48.584;-12.512
0;-0.417;-0.548;1.509;-29.541;-37.17;-6.409
0;-0.048;-0.359;1.828;-8.545;-36.621;12.39
0;-0.05;-0.074;1.817;0.977;-38.269;16.174
0;-0.107;-0.121;1.346;-9.094;-12.634;1.099
0;-0.029;-0.114;0.879;-16.663;26.611;-11.353
0;0.016;-0.063;0.749;-4.761;28.015;-7.629
0;0.02;-0.05;0.691;3.174;11.169;-1.16
0;0.012;-0.153;0.729;1.709;-0.061;-2.136
0;0.023;-0.193;0.768;-4.639;-0.732;-4.15
0;0.042;-0.211;0.853;-8.118;-3.357;-4.272
0;0.253;-0.257;2.321;72.205;50.781;39.429
0;0.291;-0.2;2.398;86.548;39.246;31.128
0;0.289;-0.159;2.363;103.027;29.48;20.508
0;0.357;-0.074;2.17;123.901;19.47;10.437
0;0.339;-0.026;2.03;153.381;0.488;4.211
0;0.274;-0.04;1.92;177.063;-27.588;-4.089
0;0.202;0.087;1.768;194.275;-44.067;-12.756
0;0.126;0.068;1.639;214.6;-55.237;-17.395
0;0.108;0.015;1.454;226.807;-62.561;-19.226
0;0.109;-0.013;1.309;231.689;-66.833;-21.423
0;0.082;-0.056;1.282;231.934;-66.406;-23.865
0;0.073;-0.044;1.189;223.511;-60.913;-24.475
0;0.076;-0.115;1.158;212.219;-59.387;-23.315
0;0.099;-0.045;1.148;205.017;-61.34;-19.409
0;0.097;0.148;1.158;210.144;-59.631;-17.395
0;0.123;0.016;1.131;225.525;-53.04;-17.517
0;0.209;-0.19;0.99;226.501;-44.8;-20.02
0;0.267;-0.243;0.825;214.661;-43.152;-26.55
0;0.209;-0.107;0.817;213.562;-51.575;-35.461
0;0.098;-0.039;0.807;221.436;-53.101;-42.48
0;0.042;0.031;0.733;227.295;-43.823;-42.725
0;0.05;-0.062;0.704;231.079;-35.034;-36.56
0;0.137;-0.252;0.64;222.168;-28.992;-32.776
0;0.186;-0.293;0.555;206.177;-28.87;-40.955
0;0.068;-0.18;0.574;205.383;-38.696;-54.688
0;-0.02;-0.187;0.531;217.407;-50.659;-61.951
0;-0.063;-0.233;0.28;224.609;-51.758;-65.186
0;-0.11;-0.239;-0.021;229.187;-46.448;-67.81
0;-0.196;-0.257;-0.238;228.699;-47.546;-70.313
0;-0.283;-0.297;-0.428;220.337;-51.758;-69.092
0;-0.35;-0.325;-0.577;208.069;-55.725;-64.575
0;-0.402;-0.307;-0.72;196.167;-58.96;-60.242
0;-0.471;-0.306;-0.847;190.308;-59.326;-55.176
0;-0.53;-0.365;-1.009;186.279;-54.81;-47.852
0;-0.536;-0.446;-1.206;174.805;-47.913;-44.189
0;-0.549;-0.51;-1.36;157.654;-48.157;-43.762
0;-0.561;-0.524;-1.52;139.221;-58.228;-46.143
0;-0.596;-0.507;-1.653;121.46;-78.003;-49.866
0;-0.655;-0.469;-1.82;101.196;-106.445;-50.049
0;-0.711;-0.466;-1.933;73.364;-141.479;-45.593
0;-0.797;-0.414;-1.944;40.527;-174.805;-36.377
0;-0.85;-0.417;-1.992;16.846;-181.58;-22.278
0;-0.83;-0.492;-2.004;2.808;-151.794;-9.094
0;-0.775;-0.6;-1.896;-16.357;-99.304;-0.671
0;-0.697;-0.649;-1.65;-41.748;-43.091;7.385
0;-0.583;-0.66;-1.355;-64.209;3.662;15.93
0;-0.471;-0.716;-1.12;-77.698;37.415;21.362
0;-0.359;-0.755;-0.931;-84.351;59.448;22.278
0;-0.275;-0.76;-0.796;-90.393;69.031;19.348
0;-0.227;-0.763;-0.707;-96.924;62.317;15.625
0;-0.196;-0.76;-0.616;-102.722;44.922;11.658
0;-0.172;-0.744;-0.582;-106.873;30.518;5.554
0;-0.153;-0.734;-0.586;-109.802;23.376;-2.502
0;-0.153;-0.681;-0.604;-113.708;19.531;-11.414
0;-0.185;-0.672;-0.641;-120.911;15.747;-18.799
0;-0.194;-0.656;-0.657;-131.47;13.184;-22.339
0;-0.184;-0.65;-0.635;-143.25;16.663;-25.269
0;-0.184;-0.538;-0.574;-154.114;29.114;-30.701
0;-0.211;-0.46;-0.52;-161.499;45.41;-35.522
0;-0.219;-0.432;-0.473;-168.64;58.838;-36.56
0;-0.206;-0.426;-0.374;-176.392;67.566;-35.95
0;-0.179;-0.445;-0.282;-183.35;74.768;-38.391
0;-0.147;-0.408;-0.205;-186.157;81.97;-45.044
0;-0.174;-0.301;-0.128;-183.289;88.135;-53.406
0;-0.289;-0.112;-0.047;-178.162;90.393;-58.472
0;-0.422;0.049;0.035;-174.377;87.83;-53.467
0;-0.513;0.164;0.11;-172.424;85.205;-36.011
0;-0.512;0.161;0.19;-177.185;83.008;-10.742
0;-0.414;0.051;0.248;-199.28;86.182;12.756
0;-0.199;-0.02;0.382;-228.21;96.497;27.771
0;-0.036;-0.132;0.533;-251.77;110.046;26.978
0;-0.078;-0.167;0.586;-264.099;121.582;10.803
0;-0.147;0.046;0.756;-252.441;125.854;-1.282
0;-0.218;0.299;1.031;-231.506;121.948;1.282
0;-0.238;0.549;1.298;-217.773;120.3;14.343
0;-0.26;0.813;1.726;-194.946;117.126;36.682
0;-0.305;0.588;2.332;-172.852;112.122;61.707
0;-0.082;0.226;2.392;-174.988;133.545;79.285
0;0.271;0.068;2.06;-186.89;151.733;84.351
0;0.354;0.022;2.042;-184.814;109.375;76.111
0;0.278;-0.098;2.307;-165.833;39.001;65.552
0;0.255;-0.172;2.453;-149.17;-1.892;54.504
0;0.305;-0.263;2.367;-129.272;-3.052;38.208
0;0.367;-0.444;2.18;-99.243;9.46;20.569
0;0.403;-0.612;1.877;-75.256;29.053;3.601
0;0.3;-0.667;1.679;-64.941;42.969;-14.099
0;-0.282;-0.522;1.835;-64.087;44.312;-33.508
0;0.303;-0.321;1.099;-66.284;57.861;-46.082
0;-0.261;-0.452;2.072;-62.439;-14.893;-39.063
0;-0.307;-0.102;2.063;-56.885;-4.822;-15.442
0;0;0.188;2.138;-60.974;20.325;-22.888
0;-0.238;-0.142;1.728;-32.776;43.762;-56.519
0;-0.431;-0.27;1.429;-22.949;34.485;-57.678
0;-0.293;-0.143;1.243;-22.095;-2.502;-28.992
0;-0.183;-0.221;1.076;-14.099;-38.879;-19.043
0;-0.196;-0.267;0.932;-3.845;-63.904;-14.832
0;-0.18;-0.273;0.814;5.005;-72.327;-8.362
0;-0.111;-0.316;0.69;9.827;-55.908;-6.042
0;-0.069;-0.311;0.536;8.606;-30.029;-3.357
0;-0.036;-0.289;0.471;1.587;-6.287;-5.432
0;-0.036;-0.318;0.522;-9.46;10.681;-9.521
0;-0.037;-0.325;0.562;-21.24;25.024;-11.353
0;-0.011;-0.287;0.561;-30.884;34.668;-14.099
0;-0.019;-0.224;0.627;-34.851;31.006;-18.311
0;-0.092;-0.182;0.692;-36.926;19.653;-22.156
0;-0.171;-0.174;0.732;-40.1;6.409;-22.949
0;-0.232;-0.166;0.765;-44.25;-4.639;-19.592
0;-0.28;-0.166;0.804;-46.753;-12.573;-14.404
0;-0.351;-0.15;0.857;-49.133;-15.625;-10.681
0;-0.306;-0.172;0.788;-53.467;-20.447;-11.108
0;-0.416;-0.168;0.942;-54.138;-38.269;-6.653
0;-0.453;-0.116;1.069;-55.481;-30.701;-1.892
0;-0.483;-0.116;1.142;-54.688;-1.038;-1.77
0;-0.893;-0.488;1.649;-49.988;32.898;4.517
0;-0.391;-0.174;2.714;-25.879;32.776;33.813
0;0.012;0.22;2.558;-2.197;35.583;39.063
0;0.042;0.039;1.614;3.235;36.621;8.911
0;0.056;-0.277;0.891;6.042;21.179;-12.512
0;0.088;-0.284;0.588;16.541;-6.836;-9.949
0;0.108;-0.235;2.308;94.116;47.485;41.748
0;0.157;-0.251;2.396;108.704;43.945;37.659
0;0.201;-0.214;2.385;119.751;37.048;33.875
0;0.255;-0.198;2.289;132.08;25.146;24.719
0;0.295;-0.162;2.165;148.926;6.165;12.39
0;0.283;-0.133;2.089;170.288;-11.414;1.404
0;0.243;0.008;1.931;189.941;-19.043;-5.31
0;0.211;0.148;1.778;207.703;-24.78;-11.23
0;0.205;0.138;1.658;219.055;-41.199;-13.916
0;0.187;0.108;1.52;219.116;-60.12;-14.221
0;0.19;0.062;1.391;219.482;-74.28;-13.55
0;0.189;-0.025;1.314;224.304;-82.153;-14.526
0;0.222;-0.133;1.17;228.882;-74.89;-19.409
0;0.24;0.004;1.144;230.713;-61.829;-24.353
0;0.216;0.04;1.12;230.164;-52.917;-27.344
0;0.198;0.078;1.042;225.525;-49.744;-28.748
0;0.162;-0.012;1.039;225.769;-57.495;-25.513
0;0.219;-0.16;0.882;223.633;-67.993;-23.865
0;0.264;-0.162;0.729;218.262;-77.454;-28.992
0;0.226;-0.085;0.718;218.872;-89.661;-37.72
0;0.119;-0.002;0.641;224.548;-89.844;-45.105
0;0.027;0.082;0.56;233.582;-79.712;-46.082
0;-0.009;0.013;0.488;241.394;-67.078;-41.26
0;0.02;-0.082;0.272;236.938;-55.664;-39.612
0;-0.012;-0.151;0.198;223.511;-58.105;-43.396
0;-0.064;-0.18;0.148;215.576;-67.505;-46.448
0;-0.169;-0.202;0.082;212.158;-71.655;-50.049
0;-0.239;-0.242;-0.072;216.37;-67.871;-52.979
0;-0.281;-0.295;-0.28;219.727;-62.744;-55.359
0;-0.344;-0.371;-0.401;215.454;-60.12;-57.068
0;-0.403;-0.337;-0.587;208.374;-56.824;-55.847
0;-0.467;-0.382;-0.72;200.623;-59.082;-54.138
0;-0.501;-0.39;-0.952;194.885;-63.721;-52.063
0;-0.594;-0.341;-1.127;184.692;-67.139;-49.316
0;-0.723;-0.261;-1.349;172.18;-67.871;-44.739
0;-0.793;-0.252;-1.606;159.485;-71.472;-41.138
0;-0.821;-0.257;-1.847;145.203;-86.609;-39.734
0;-0.8;-0.283;-2.135;127.502;-109.253;-35.828
0;-0.729;-0.192;-2.263;101.868;-137.878;-30.029
0;-0.747;-0.116;-2.407;62.988;-163.086;-24.719
0;-0.825;-0.254;-2.425;21.423;-178.772;-22.766
0;-0.954;-0.37;-2.221;-14.343;-172.852;-16.724
0;-0.915;-0.493;-1.955;-47.852;-133.911;-4.089
0;-0.774;-0.609;-1.656;-65.918;-72.998;11.536
0;-0.564;-0.696;-1.421;-70.984;-3.357;25.146
0;-0.433;-0.758;-1.128;-81.665;50.781;29.907
0;-0.321;-0.79;-0.865;-93.079;86.426;29.724
0;-0.239;-0.813;-0.639;-101.074;104.919;28.381
0;-0.143;-0.782;-0.501;-104.248;108.765;24.597
0;-0.169;-0.778;-0.361;-105.774;97.534;16.968
0;-0.168;-0.755;-0.314;-104.492;80.2;11.475
0;-0.183;-0.727;-0.328;-105.408;61.035;7.507
0;-0.202;-0.708;-0.325;-109.924;41.565;2.747
0;-0.233;-0.682;-0.344;-115.356;26.306;-1.831
0;-0.238;-0.644;-0.349;-119.08;16.724;-5.554
0;-0.24;-0.653;-0.36;-125.366;14.832;-11.169
0;-0.244;-0.692;-0.359;-133.301;21.484;-18.616
0;-0.218;-0.708;-0.34;-139.709;33.081;-27.344
0;-0.202;-0.73;-0.313;-142.822;48.279;-39.124
0;-0.187;-0.697;-0.266;-144.287;67.2;-53.772
0;-0.192;-0.585;-0.192;-144.958;88.745;-68.115
0;-0.235;-0.347;-0.086;-143.982;107.056;-77.087
0;-0.417;-0.152;0.004;-140.015;117.676;-77.271
0;-0.582;-0.057;0.044;-140.503;118.042;-62.378
0;-0.657;0.051;0.103;-152.71;111.084;-32.898
0;-0.693;0.046;0.255;-172.668;100.952;-0.305
0;-0.633;-0.096;0.382;-195.068;93.994;26.001
0;-0.499;-0.235;0.457;-207.703;91.98;41.626
0;-0.389;-0.391;0.56;-209.29;91.003;43.701
0;-0.293;-0.52;0.62;-204.163;95.276;35.583
0;-0.203;-0.616;0.658;-195.374;104.553;20.813
0;-0.169;-0.611;0.671;-183.044;116.028;4.883
0;-0.204;-0.458;0.699;-165.283;125.061;-3.357
0;-0.187;-0.256;0.725;-147.095;128.845;-3.845
0;-0.249;0.024;0.805;-128.357;125.854;2.686
0;-0.364;0.234;0.987;-107.91;113.647;26.917
0;-0.325;0.199;1.197;-113.525;93.933;54.871
0;-0.196;0.063;1.35;-142.639;81.787;74.097
0;-0.108;-0.064;1.508;-167.542;66.711;92.102
0;0.03;-0.229;1.655;-185.364;37.903;96.375
0;0.129;-0.433;1.836;-189.758;8.362;83.191
0;0.177;-0.553;1.889;-176.147;-11.047;61.401
0;0.187;-0.58;1.795;-145.813;-18.372;37.598
0;0.183;-0.611;1.615;-107.666;-12.085;13.55
0;0.161;-0.6;1.416;-74.646;6.226;-6.836
0;0.126;-0.52;1.217;-47.791;34.485;-20.63
0;0.089;-0.351;1.024;-27.283;62.561;-29.785
0;0.008;-0.184;0.929;-16.663;83.069;-37.598
0;-0.09;0.021;0.901;-13.611;96.191;-37.903
0;-0.201;0.171;0.939;-14.282;94.971;-26.733
0;-0.265;0.066;1.094;-19.348;83.618;-9.277
0;-0.152;-0.162;1.188;-35.156;80.2;11.658
0;0.03;-0.237;1.127;-57.922;81.116;31.311
0;0.116;-0.336;1.116;-79.102;71.594;31.067
0;0.128;-0.553;1.109;-89.111;50.537;18.005
0;0.131;-0.517;1.218;-89.6;24.353;11.841
0;0.177;-0.429;0.729;-82.642;11.475;2.075
0;0.055;-0.558;1.129;-75.928;-49.011;-17.883
0;-0.132;-0.504;1.401;-55.786;-57.251;-18.433
0;-0.104;-0.331;1.241;-51.758;-8.545;-20.203
0;-0.05;-0.231;1.063;-48.828;28.748;-29.358
0;-0.211;-0.152;1.293;-47.974;29.602;-24.17
0;-0.257;-0.015;1.184;-60.364;28.259;-9.766
0;-0.968;-0.727;2.487;-69.458;2.075;5.615
0;-0.272;-1.003;3.793;-26.611;19.409;42.114
0;0.631;-0.13;2.422;2.136;109.497;67.81
0;0.452;-0.091;1.529;-2.93;104.065;35.828
0;0.465;-0.458;0.829;-22.705;54.81;-16.113
0;0.299;-0.681;0.858;-2.38;-23.926;-32.593
0;0.293;-0.348;0.652;12.329;-57.495;-12.207
0;0.126;-0.255;0.521;3.601;-76.904;-13.367
0;0.029;-0.261;0.396;2.563;-88.928;-21.545
0;-0.047;-0.326;0.297;4.395;-88.135;-22.522
0;-0.119;-0.342;0.281;0.183;-79.346;-16.113
0;-0.262;-0.281;0.495;-8.423;-59.875;-10.071
0;-0.368;-0.254;0.879;-13.184;-23.56;-9.644
0;-0.409;-0.278;1.214;-15.32;21.362;-8.789
0;-0.371;-0.24;1.295;-17.639;63.904;-2.869
0;-0.259;-0.238;1.357;-17.029;76.66;0.61
0;0.092;-0.359;2.355;70.19;44.495;53.406
0;0.153;-0.384;2.443;88.074;52.124;50.964
0;0.262;-0.408;2.414;104.98;56.641;44.434
0;0.381;-0.414;2.295;121.155;50.598;32.654
0;0.411;-0.441;2.116;132.507;30.396;15.686
0;0.393;-0.342;1.998;141.296;-2.075;-0.366
0;0.297;-0.123;1.996;152.222;-37.903;-8.545
0;0.219;-0.091;1.942;160.278;-67.322;-11.047
0;0.226;-0.099;1.758;162.964;-82.703;-11.108
0;0.243;0.024;1.607;173.34;-89.172;-11.475
0;0.238;0.105;1.571;195.251;-88.501;-12.024
0;0.251;0.041;1.448;209.229;-78.674;-11.963
0;0.297;-0.023;1.285;209.778;-63.11;-12.268
0;0.364;0.01;1.228;206.848;-52.307;-14.343
0;0.373;-0.057;1.202;201.233;-48.035;-18.372
0;0.374;-0.092;1.071;195.435;-48.157;-25.024
0;0.329;-0.092;0.971;202.576;-55.542;-32.715
0;0.284;-0.067;0.795;220.581;-62.134;-41.138
0;0.262;0.082;0.599;237.183;-63.049;-48.706
0;0.168;0.033;0.569;242.615;-67.505;-54.871
0;0.119;-0.111;0.392;231.567;-61.157;-60.852
0;0.085;-0.175;0.277;216.003;-50.537;-65.979
0;0.02;-0.149;0.216;206.36;-42.847;-71.045
0;-0.056;-0.078;0.182;203.491;-38.635;-75.073
0;-0.127;-0.094;0.12;204.346;-35.461;-74.585
0;-0.194;-0.082;0.029;200.806;-31.128;-72.449
0;-0.283;-0.135;-0.074;198.364;-28.32;-68.42
0;-0.29;-0.194;-0.196;195.19;-26.794;-64.148
0;-0.272;-0.252;-0.243;188.171;-25.879;-65.857
0;-0.344;-0.305;-0.315;180.054;-24.841;-70.129
0;-0.432;-0.292;-0.455;176.025;-22.888;-72.388
0;-0.538;-0.322;-0.526;175.232;-26.123;-73.364
0;-0.615;-0.314;-0.661;171.021;-26.367;-73.425
0;-0.703;-0.292;-0.774;165.71;-26.855;-69.763
0;-0.776;-0.382;-1.009;158.264;-30.212;-66.528
0;-0.826;-0.439;-1.215;145.508;-39.978;-62.073
0;-0.915;-0.463;-1.346;126.221;-56.091;-59.448
0;-1.029;-0.397;-1.48;106.628;-72.388;-55.786
0;-1.15;-0.298;-1.587;88.44;-91.736;-49.5
0;-1.242;-0.264;-1.645;68.298;-113.892;-38.696
0;-1.308;-0.25;-1.653;39.185;-133.118;-19.409
0;-1.29;-0.387;-1.59;4.883;-148.865;1.221
0;-1.188;-0.519;-1.447;-18.005;-146.973;22.827
0;-1.041;-0.627;-1.277;-25.269;-114.075;39.246
0;-0.858;-0.71;-1.134;-25.696;-56.885;45.715
0;-0.669;-0.782;-1.028;-27.71;3.296;45.959
0;-0.497;-0.866;-0.895;-37.842;44.067;44.739
0;-0.368;-0.911;-0.686;-54.749;63.66;42.053
0;-0.259;-0.91;-0.496;-71.289;70.618;37.72
0;-0.174;-0.91;-0.405;-79.773;67.322;31.311
0;-0.155;-0.908;-0.37;-81.055;52.673;23.01
0;-0.163;-0.908;-0.419;-79.163;33.569;14.404
0;-0.21;-0.876;-0.471;-80.994;13.184;6.653
0;-0.285;-0.829;-0.504;-87.341;-4.944;0.061
0;-0.347;-0.764;-0.531;-93.933;-18.127;-3.723
0;-0.411;-0.698;-0.547;-98.694;-23.315;-7.202
0;-0.438;-0.656;-0.576;-103.638;-20.691;-9.521
0;-0.42;-0.623;-0.598;-110.107;-15.015;-9.949
0;-0.39;-0.638;-0.576;-119.995;-9.583;-12.573
0;-0.347;-0.645;-0.543;-132.935;-3.418;-18.188
0;-0.301;-0.63;-0.478;-145.691;2.625;-26.55
0;-0.231;-0.615;-0.433;-153.748;9.399;-37.109
0;-0.162;-0.615;-0.383;-157.715;18.372;-50.232
0;-0.091;-0.583;-0.365;-159.058;30.457;-64.575
0;-0.07;-0.49;-0.33;-160.706;41.443;-77.271
0;-0.087;-0.331;-0.252;-156.738;48.462;-84.534
0;-0.01;-0.287;-0.088;-147.949;55.481;-78.491
0;0.038;-0.284;0.066;-141.602;70.862;-37.109
0;-0.359;0.142;0.131;-132.263;97.778;44.556
0;-0.717;0.335;0.051;-128.418;120.117;101.196
0;-0.839;0.425;0.016;-149.048;123.718;96.436
0;-0.548;0.212;0.154;-181.152;112.671;57.068
0;-0.383;0.075;0.362;-213.013;90.637;41.87
0;-0.386;0.089;0.678;-235.596;70.251;55.603
0;-0.328;0.002;0.967;-236.877;74.768;62.256
0;-0.179;-0.118;1.106;-228.882;106.75;58.777
0;0.019;-0.25;1.124;-223.694;145.386;45.898
0;0.07;-0.193;1.095;-220.337;164.917;29.236
0;-0.031;0.133;1.247;-207.581;145.02;25.085
0;-0.156;0.33;1.596;-185.913;86.609;41.809
0;-0.144;0.275;1.89;-183.594;24.109;57.556
0;-0.091;0.219;2.064;-192.627;-8.667;70.068
0;-0.053;0.141;2.089;-197.449;-14.526;80.75
0;0.09;-0.012;1.973;-195.19;-11.169;81.299
0;0.198;-0.21;1.85;-185.669;-7.812;69.824
0;0.211;-0.297;1.826;-164.612;-1.77;51.88
0;0.173;-0.36;1.856;-137.207;15.808;28.625
0;0.116;-0.45;1.851;-114.38;47.485;3.418
0;0.079;-0.483;1.784;-96.497;82.581;-16.418
0;0.041;-0.398;1.659;-82.52;113.037;-28.687
0;0.031;-0.387;1.556;-74.158;126.038;-36.56
0;-0.025;-0.229;1.532;-73.547;124.512;-37.72
0;-0.388;0.035;1.71;-75.5;109.68;-33.569
0;-0.009;-0.057;0.902;-80.566;68.481;-36.011
0;-0.317;-0.183;1.695;-77.637;-33.936;-20.996
0;-0.396;-0.011;1.54;-78.552;-52.185;-0.305
0;-0.287;-0.213;1.514;-76.172;-53.406;3.235
0;-0.149;-0.255;1.2;-71.045;-41.382;16.663
0;-0.143;-0.215;1.159;-59.937;-53.833;26.978
0;-0.128;-0.213;1.161;-46.753;-55.481;23.987
0;-0.088;-0.284;1.145;-38.94;-43.762;14.893
0;-0.088;-0.223;1.069;-32.532;-26.55;12.146
0;-0.056;-0.217;1.064;-30.151;-11.108;6.775
0;-0.067;-0.127;1.044;-26.672;3.235;0.916
0;-0.273;-0.436;1.374;-28.625;5.92;-4.7
0;-0.209;-0.261;1.982;-18.982;-16.541;1.831
0;-0.069;-0.161;2.032;-2.991;-11.597;5.371
0;0.032;-0.216;1.59;2.38;16.663;-6.348
0;-0.03;-0.17;1.164;3.052;30.64;-13.306
0;-0.079;-0.168;0.988;-1.526;19.47;-13.916
0;-0.047;-0.147;0.849;0.183;2.625;-6.958
0;-0.012;-0.132;0.76;4.517;-11.536;-2.075
0;-0.033;-0.168;0.709;6.531;-18.677;-2.991
0;-0.036;-0.206;0.695;2.625;-15.381;-5.92
0;-0.077;-0.213;0.761;-0.549;-8.606;-7.935
0;-0.14;-0.208;0.877;-2.014;-2.075;-10.315
0;-0.182;-0.218;0.967;-2.625;3.723;-12.756
0;-0.211;-0.238;1.049;-2.563;5.92;-13.794
0;-0.209;-0.22;1.071;-2.014;4.883;-13.123
0;0.085;-0.31;2.218;37.109;71.594;80.994
0;0.205;-0.329;2.372;53.772;70.618;74.402
0;0.255;-0.329;2.531;78.979;57.373;60.913
0;0.257;-0.229;2.578;109.68;49.011;47.241
0;0.26;-0.148;2.577;141.235;45.593;35.217
0;0.318;-0.118;2.478;163.025;43.457;25.085
0;0.366;-0.113;2.303;175.354;40.833;12.512
0;0.362;-0.076;2.123;192.139;37.903;-0.183
0;0.337;0.058;1.917;210.815;33.447;-9.277
0;0.31;0.089;1.74;226.929;22.278;-14.893
0;0.321;0.084;1.596;237.183;7.263;-18.25
0;0.385;0.059;1.394;241.455;-5.249;-22.4
0;0.393;0.083;1.229;244.69;-16.235;-30.212
0;0.349;0.158;1.093;252.441;-23.01;-40.283
0;0.303;0.076;1.001;260.01;-30.884;-48.462
0;0.304;0.064;0.9;258.85;-34.546;-54.199
0;0.295;0.056;0.839;253.296;-30.029;-57.19
0;0.262;-0.005;0.8;240.417;-32.776;-57.19
0;0.264;-0.169;0.728;225.83;-46.631;-55.237
0;0.276;-0.186;0.66;221.985;-57.983;-53.101
0;0.266;-0.179;0.56;226.074;-63.843;-58.533
0;0.187;-0.069;0.476;226.501;-63.782;-69.336
0;0.077;-0.031;0.447;222.9;-64.636;-74.524
0;0.016;-0.107;0.441;217.468;-69.458;-69.946
0;-0.013;-0.11;0.415;210.876;-66.528;-65.613
0;-0.007;-0.169;0.242;211.914;-52.49;-69.153
0;-0.035;-0.226;0.132;211.121;-43.701;-75.684
0;-0.106;-0.176;0.01;203.003;-40.161;-80.322
0;-0.216;-0.115;-0.01;196.655;-41.565;-79.102
0;-0.266;-0.176;0.024;194.214;-41.87;-71.777
0;-0.212;-0.306;-0.095;185.12;-32.532;-70.313
0;-0.231;-0.385;-0.183;175.354;-25.94;-76.355
0;-0.335;-0.352;-0.138;174.622;-28.259;-79.59
0;-0.384;-0.372;-0.168;176.086;-29.053;-78.979
0;-0.402;-0.412;-0.382;179.443;-23.743;-79.651
0;-0.449;-0.447;-0.63;185.425;-21.545;-83.496
0;-0.538;-0.426;-0.865;188.354;-29.053;-88.379
0;-0.643;-0.32;-1.103;184.692;-43.03;-91.064
0;-0.788;-0.239;-1.383;177.612;-64.514;-94.055
0;-0.906;-0.227;-1.718;171.448;-91.736;-95.032
0;-1.027;-0.19;-2.011;158.203;-124.023;-90.759
0;-1.127;-0.173;-2.196;128.479;-156.372;-80.139
0;-1.192;-0.124;-2.232;86.609;-181.396;-60.059
0;-1.238;-0.172;-2.159;47.302;-182.617;-33.875
0;-1.218;-0.3;-2.003;15.93;-147.278;-8.484
0;-1.093;-0.449;-1.775;-16.785;-82.092;12.268
0;-0.873;-0.504;-1.496;-45.776;-12.573;32.776
0;-0.687;-0.56;-1.165;-62.5;39.063;49.377
0;-0.522;-0.685;-0.911;-75.867;72.266;57.556
0;-0.379;-0.789;-0.668;-87.952;86.365;61.279
0;-0.259;-0.839;-0.485;-97.412;86.182;60.974
0;-0.195;-0.862;-0.361;-101.929;74.463;53.04
0;-0.181;-0.881;-0.314;-99.854;57.068;40.344
0;-0.193;-0.867;-0.347;-94.971;37.231;27.466
0;-0.234;-0.851;-0.405;-94.36;15.137;15.198
0;-0.275;-0.823;-0.475;-98.999;-6.409;5.249
0;-0.328;-0.718;-0.489;-106.995;-23.682;-1.282
0;-0.4;-0.592;-0.476;-115.906;-32.593;-4.639
0;-0.443;-0.543;-0.476;-123.901;-32.349;-3.418
0;-0.451;-0.544;-0.453;-132.507;-24.536;0.793
0;-0.405;-0.539;-0.406;-142.761;-10.132;4.028
0;-0.374;-0.553;-0.333;-153.259;6.897;4.15
0;-0.336;-0.597;-0.281;-161.438;24.658;0.793
0;-0.31;-0.573;-0.214;-166.443;40.894;-3.601
0;-0.293;-0.526;-0.135;-169.373;56.519;-8.911
0;-0.293;-0.416;-0.047;-171.448;70.068;-13.306
0;-0.361;-0.239;0.099;-169.8;79.468;-13.062
0;-0.414;-0.256;0.155;-165.161;84.778;-5.31
0;-0.394;-0.31;0.183;-163.513;83.435;8.606
0;-0.324;-0.373;0.201;-168.945;74.463;20.63
0;-0.268;-0.407;0.231;-178.284;59.875;24.963
0;-0.27;-0.389;0.306;-187.073;45.593;22.4
0;-0.319;-0.36;0.376;-190.735;40.833;17.151
0;-0.321;-0.362;0.411;-190.735;47.119;13.062
0;-0.312;-0.386;0.462;-190.979;56.519;9.094
0;-0.291;-0.386;0.507;-192.627;68.42;3.784
0;-0.259;-0.375;0.583;-192.383;81.36;-0.977
0;-0.23;-0.34;0.654;-189.514;96.008;-3.845
0;-0.22;-0.175;0.73;-185.913;110.229;-2.991
0;-0.255;0.008;0.882;-181.152;117.31;5.798
0;-0.271;0.034;0.992;-177.246;112.366;25.696
0;-0.214;-0.032;1.052;-180.603;93.872;49.194
0;-0.133;-0.113;1.124;-186.157;68.97;65.063
0;-0.042;-0.197;1.208;-188.049;46.692;70.496
0;0.012;-0.211;1.233;-184.509;36.133;68.909
0;0.086;-0.203;1.245;-173.523;38.147;61.707
0;0.124;-0.207;1.32;-159.546;50.964;53.04
0;0.206;-0.289;1.373;-149.78;74.768;44.495
0;0.225;-0.413;1.363;-150.208;101.99;35.645
0;0.231;-0.539;1.378;-157.104;126.709;28.748
0;0.321;-0.5;1.428;-168.762;149.536;30.518
0;0.392;-0.371;1.606;-180.847;170.044;35.889
0;0.439;-0.276;1.714;-192.383;194.214;41.016
0;0.453;-0.207;1.782;-198.303;205.383;47.791
0;0.659;-0.201;1.914;-197.815;201.965;52.856
0;0.452;0.066;1.925;-195.19;220.764;52.063
0;0.552;0.501;1.342;-194.58;166.138;28.015
0;0.834;0.092;1.35;-146.118;83.191;15.32
0;0.532;0.005;1.522;-98.389;12.39;22.461
0;0.331;-0.127;1.792;-77.271;-11.169;27.1
0;0.156;-0.091;1.612;-78.125;4.883;18.738
0;0.363;-0.189;1.396;-85.938;1.587;4.272
0;0.486;-0.266;1.287;-84.778;-29.297;5.798
0;0.474;-0.283;1.478;-82.336;-72.083;27.161
0;0.186;-0.148;1.507;-85.815;-87.341;49.316
0;0.034;0.021;1.526;-88.257;-91.431;45.532
0;0.052;0.038;1.573;-86.792;-65.063;46.448
0;0.152;0.042;1.512;-76.111;-25.94;43.335
0;0.051;0.143;1.404;-50.842;7.568;34.851
0;0.045;0.111;1.266;-29.236;44.861;31.25
0;0.103;0.049;1.063;-14.893;76.538;27.71
0;0.113;-0.029;0.849;-14.038;97.656;20.691
0;0.132;-0.088;0.718;-18.066;111.145;16.785
0;0.157;-0.112;0.658;-25.085;112.976;15.137
0;0.181;-0.11;0.636;-32.166;104.37;13.123
0;0.241;-0.101;0.662;-39.063;90.942;10.925
0;0.292;-0.09;0.706;-44.617;71.899;8.85
0;0.306;-0.09;0.752;-48.096;51.147;9.521
0;0.244;-0.101;0.761;-53.162;31.494;13.611
1;-0.525;-0.968;1.432;17.517;76.05;-25.391
1;-0.614;-1.17;1.336;19.226;93.201;-21.79
1;-0.694;-1.35;1.238;24.17;96.68;-11.841
1;-0.745;-1.452;1.14;29.114;90.637;4.639
1;-0.764;-1.587;1.044;31.372;82.947;26.367
1;-0.719;-1.646;0.953;27.954;77.209;45.227
1;-0.677;-1.638;0.846;19.104;71.899;62.622
1;-0.672;-1.566;0.711;6.165;65.613;82.458
1;-0.676;-1.442;0.613;-7.568;56.152;106.445
1;-0.641;-1.254;0.542;-17.578;45.105;133.179
1;-0.61;-1.043;0.49;-22.949;32.471;161.804
1;-0.549;-0.781;0.406;-26.428;22.888;189.697
1;-0.417;-0.375;0.269;-29.236;18.799;213.135
1;-0.299;0.189;0.114;-31.799;20.386;226.379
1;-0.278;0.653;0.039;-35.095;21.179;225.586
1;-0.229;1.01;0.024;-42.48;16.846;215.576
1;-0.123;1.275;0.027;-49.194;11.719;205.688
1;-0.108;1.465;0.042;-47.241;11.536;198.669
1;-0.192;1.607;0.03;-37.537;16.174;189.087
1;-0.208;1.696;-0.064;-29.907;25.635;180.237
1;-0.185;1.835;-0.111;-34.912;25.452;183.105
1;-0.001;2.116;0.008;-52.612;5.554;203.43
1;0.242;2.414;0.334;-76.965;-29.358;223.816
1;0.449;2.643;0.851;-102.966;-69.824;219.727
1;0.795;2.776;1.453;-119.507;-85.815;193.97
1;1.105;2.751;1.958;-114.99;-66.772;160.217
1;1.331;2.668;2.107;-88.135;-25.33;121.948
1;1.386;2.444;1.955;-41.443;23.987;81.543
1;1.225;2.109;1.614;7.385;53.711;38.33
1;1.002;1.791;1.274;45.288;56.519;-4.272
1;0.789;1.502;1;71.533;39.917;-36.743
1;0.537;1.249;0.819;87.708;11.169;-57.373
1;0.372;1.131;0.697;93.384;-17.029;-74.097
1;0.235;1.07;0.618;91.492;-36.377;-85.022
1;0.162;1.018;0.562;85.205;-43.518;-92.346
1;0.134;0.948;0.531;77.393;-35.339;-96.313
1;0.118;0.922;0.51;65.979;-20.752;-97.9
1;0.078;0.92;0.514;50.354;-8.179;-99.548
1;0.006;0.942;0.555;37.17;-1.343;-99.304
1;0.011;1.006;0.639;30.762;1.465;-95.459
1;0.078;1.039;0.737;32.654;1.709;-92.896
1;0.111;1.058;0.818;44.25;-2.563;-94.238
1;0.119;0.997;0.853;61.584;-8.362;-97.534
1;0.072;0.906;0.835;79.834;-9.705;-100.037
1;0.028;0.827;0.76;93.933;-6.042;-101.257
1;0.008;0.753;0.674;100.586;-1.892;-100.464
1;0.015;0.647;0.61;99.731;-1.526;-99.976
1;0.002;0.533;0.581;92.224;-5.188;-100.708
1;0.026;0.4;0.585;79.285;-11.292;-102.295
1;0.035;0.245;0.573;61.89;-14.709;-103.394
1;0.044;0.066;0.559;42.542;-17.151;-104.736
1;0.056;-0.108;0.569;24.719;-23.376;-105.774
1;0.055;-0.237;0.595;10.742;-32.471;-103.76
1;0.002;-0.286;0.664;1.343;-42.786;-97.168
1;-0.058;-0.316;0.779;-3.662;-54.626;-87.036
1;-0.101;-0.372;0.863;-2.686;-62.073;-76.172
1;-0.158;-0.374;0.921;0.732;-66.04;-65.063
1;-0.211;-0.336;0.979;0.854;-71.594;-53.711
1;-0.264;-0.29;1.065;-3.662;-74.036;-41.809
1;-0.25;-0.298;1.138;-13.062;-67.505;-30.64
1;-0.187;-0.331;1.18;-23.499;-49.194;-21.667
1;-0.121;-0.366;1.231;-32.654;-25.696;-21.79
1;-0.106;-0.406;1.236;-37.17;0.366;-31.006
1;-0.123;-0.47;1.216;-33.936;25.513;-43.457
1;-0.175;-0.514;1.195;-24.78;46.448;-51.636
1;-0.179;-0.594;1.177;-15.869;56.03;-55.969
1;-0.203;-0.661;1.166;-11.536;54.993;-60.974
1;-0.265;-0.682;1.163;-9.705;48.828;-65.186
1;-0.326;-0.716;1.182;-5.493;43.884;-64.026
1;-0.369;-0.763;1.191;-0.671;40.588;-56.03
1;-0.392;-0.81;1.173;1.526;38.147;-46.997
1;-0.413;-0.849;1.151;1.343;36.377;-39.49
1;-0.422;-0.847;1.121;-0.183;36.072;-30.823
1;-0.404;-0.836;1.083;-3.052;37.109;-20.264
1;-0.364;-0.783;1.037;-7.08;38.635;-8.118
1;-0.291;-0.732;1.001;-12.207;38.635;2.808
1;-0.209;-0.667;0.971;-17.456;36.499;13.916
1;-0.124;-0.554;0.954;-23.01;30.396;24.902
1;-0.018;-0.414;0.944;-27.344;20.874;33.936
1;0.073;-0.294;0.987;-26.917;10.193;38.574
1;0.114;-0.198;1.043;-20.752;0.183;38.757
1;0.153;-0.142;1.044;-10.193;-5.066;35.156
1;0.182;-0.115;1.012;2.38;-4.333;29.48
1;0.179;-0.111;0.981;12.695;-3.845;24.597
1;0.155;-0.101;0.958;17.761;-4.639;23.987
1;0.168;-0.092;0.897;19.226;-4.578;27.649
1;0.198;-0.072;0.868;16.174;-7.263;31.616
1;0.22;-0.042;0.887;8.423;-14.038;33.447
1;0.231;-0.008;0.89;2.258;-18.005;35.4
1;0.257;0.039;0.892;-0.732;-18.982;36.865
1;0.274;0.084;0.926;-2.014;-20.752;34.607
1;0.3;0.126;0.94;-1.099;-22.095;30.518
1;0.341;0.171;0.946;1.465;-20.874;25.818
1;0.356;0.19;0.958;6.104;-19.897;18.188
1;0.339;0.168;0.958;13.306;-19.653;8.667
1;0.31;0.138;0.946;20.63;-18.799;0.61
1;0.289;0.097;0.92;26.123;-15.564;-3.784
1;0.267;0.073;0.904;27.893;-13.916;-7.324
1;0.243;0.047;0.873;26.428;-12.512;-9.583
1;0.241;0.016;0.833;22.888;-8.545;-8.911
1;0.234;-0.015;0.811;17.09;-4.822;-6.348
1;0.228;-0.051;0.809;10.62;-3.418;-3.357
1;0.231;-0.063;0.844;4.578;-3.357;-1.77
1;0.21;-0.064;0.883;0.122;-5.92;-1.648
1;0.195;-0.043;0.918;-3.418;-11.719;-1.526
1;0.195;-0.006;0.959;-5.798;-20.996;-1.587
1;0.198;0.016;0.999;-6.47;-28.503;-0.916
1;0.187;0.04;1.043;-7.202;-34.241;-0.61
1;0.194;0.091;1.078;-7.324;-37.476;-1.953
1;0.204;0.127;1.129;-4.15;-38.33;-5.615
1;0.182;0.141;1.175;1.648;-38.147;-11.292
1;0.156;0.138;1.173;8.301;-34.973;-15.747
1;0.146;0.134;1.161;12.817;-27.649;-18.25
1;0.129;0.12;1.14;15.503;-18.311;-18.616
1;0.124;0.093;1.112;16.479;-8.789;-17.456
1;0.135;0.081;1.083;16.052;-0.61;-15.076
1;0.14;0.068;1.047;16.785;5.188;-12.207
1;0.141;0.042;1.021;18.372;7.446;-9.888
1;0.152;0.02;1.002;18.982;6.531;-8.179
1;-0.285;-0.994;1.311;-3.723;18.25;9.033
1;-0.28;-1.056;1.269;-0.183;20.447;15.564
1;-0.281;-1.111;1.207;3.723;23.804;23.315
1;-0.28;-1.151;1.138;5.371;23.437;29.785
1;-0.307;-1.165;1.085;5.432;18.86;34.546
1;-0.351;-1.156;1.051;4.395;13.611;39.612
1;-0.405;-1.15;1.002;4.761;14.526;44.983
1;-0.449;-1.147;0.906;8.057;23.01;49.927
1;-0.482;-1.145;0.787;9.46;33.02;57.129
1;-0.532;-1.117;0.665;7.751;38.025;67.993
1;-0.597;-1.038;0.53;5.615;37.537;81.726
1;-0.63;-0.919;0.384;4.089;32.288;101.257
1;-0.65;-0.772;0.24;1.892;21.973;126.465
1;-0.671;-0.52;0.109;-2.502;8.85;153.137
1;-0.659;-0.192;-0.034;-10.254;-3.784;177.49
1;-0.617;0.257;-0.217;-21.912;-12.512;199.341
1;-0.631;0.746;-0.32;-40.161;-22.278;217.529
1;-0.636;1.216;-0.257;-68.42;-36.865;227.234
1;-0.534;1.598;-0.075;-98.572;-49.011;226.99
1;-0.461;2.054;0.095;-116.699;-49.622;221.008
1;-0.367;2.453;0.238;-125.977;-40.588;213.379
1;-0.15;2.725;0.388;-133.179;-25.94;206.726
1;0.212;2.915;0.65;-143.677;-10.559;201.904
1;0.492;2.97;1.03;-153.015;-3.418;190.125
1;0.731;2.989;1.434;-151.306;6.348;168.518
1;0.935;2.928;1.736;-135.132;21.545;143.555
1;1.144;2.788;1.864;-108.704;36.865;114.197
1;1.281;2.591;1.78;-70.557;53.101;79.468
1;1.257;2.229;1.515;-25.33;58.35;38.574
1;1.08;1.906;1.216;18.738;53.894;-3.479
1;0.873;1.643;0.946;52.856;44.495;-40.1
1;0.672;1.412;0.747;75.256;27.588;-64.941
1;0.493;1.282;0.632;85.205;2.258;-82.214
1;0.368;1.232;0.581;83.862;-26.55;-98.633
1;0.233;1.147;0.561;76.538;-45.166;-109.497
1;0.152;1.049;0.568;67.261;-51.27;-116.15
1;0.113;1.016;0.586;57.983;-48.767;-117.981
1;0.094;1.034;0.579;49.438;-43.091;-114.014
1;0.099;1.117;0.561;41.992;-41.321;-109.192
1;0.083;1.168;0.635;38.086;-49.194;-110.779
1;0.049;1.175;0.724;42.969;-66.162;-116.211
1;0.041;1.131;0.776;57.556;-81.787;-115.051
1;-0.001;1.061;0.802;75.623;-89.966;-107.666
1;0.011;1.019;0.796;85.205;-84.534;-102.417
1;0.036;0.953;0.764;90.698;-74.097;-104.248
1;0.033;0.839;0.741;92.468;-65.979;-109.253
1;-0.013;0.651;0.697;92.102;-52.551;-113.586
1;-0.038;0.438;0.619;90.149;-32.043;-117.126
1;-0.078;0.245;0.569;84.229;-19.531;-122.498
1;-0.102;0.06;0.539;74.463;-18.127;-125.977
1;-0.119;-0.099;0.542;62.988;-22.888;-126.648
1;-0.146;-0.185;0.563;48.279;-32.837;-126.831
1;-0.18;-0.261;0.622;31.555;-43.701;-127.197
1;-0.245;-0.359;0.759;16.174;-49.988;-126.038
1;-0.329;-0.423;0.916;4.15;-51.758;-122.62
1;-0.399;-0.471;1.016;2.136;-47.668;-118.164
1;-0.45;-0.538;1.094;10.559;-38.635;-111.267
1;-0.488;-0.578;1.157;20.569;-27.283;-101.868
1;-0.481;-0.645;1.187;26.062;-13.489;-91.675
1;-0.469;-0.726;1.188;28.32;-0.244;-82.581
1;-0.479;-0.757;1.154;29.175;8.301;-76.172
1;-0.488;-0.765;1.145;28.32;11.536;-69.763
1;-0.481;-0.775;1.151;28.503;13.367;-64.27
1;-0.479;-0.806;1.149;29.785;16.907;-58.289
1;-0.476;-0.819;1.132;31.555;24.048;-51.453
1;-0.457;-0.833;1.095;33.752;33.875;-45.41
1;-0.441;-0.853;1.063;35.889;43.091;-40.283
1;-0.41;-0.872;1.046;36.865;50.476;-33.691
1;-0.306;-0.881;0.977;37.964;57.251;-24.109
1;-0.096;-0.914;0.828;41.626;64.148;-11.841
1;0.148;-0.897;0.655;43.579;66.162;-0.977
1;0.334;-0.812;0.522;35.217;54.382;0.61
1;0.364;-0.71;0.509;16.113;26.917;-10.498
1;0.206;-0.57;0.644;-9.705;-13.794;-30.029
1;-0.058;-0.45;0.839;-32.471;-57.922;-47.058
1;-0.348;-0.332;1.103;-44.678;-91.431;-51.758
1;-0.544;-0.188;1.358;-45.898;-104.797;-38.452
1;-0.584;-0.125;1.526;-35.156;-91.675;-14.099
1;-0.464;-0.114;1.546;-17.822;-60.12;5.432
1;-0.299;-0.088;1.428;-0.183;-24.109;13
1;-0.182;-0.074;1.255;13.367;5.92;10.742
1;-0.096;-0.081;1.093;19.836;29.968;7.141
1;-0.009;-0.105;0.946;21.362;48.584;6.592
1;0.066;-0.129;0.829;20.569;56.274;9.583
1;0.143;-0.133;0.735;18.921;53.162;15.503
1;0.221;-0.103;0.671;16.785;44.128;22.278
1;0.28;-0.071;0.64;13.733;33.325;27.832
1;0.318;-0.03;0.647;8.667;22.217;28.748
1;0.324;0.003;0.7;0.732;9.583;24.231
1;0.297;0.014;0.773;-7.446;-1.404;16.541
1;0.236;0.012;0.842;-13.062;-9.766;7.385
1;0.147;0;0.917;-16.541;-15.93;0.061
1;0.084;-0.021;0.983;-17.395;-18.982;-3.479
1;0.065;-0.028;1.03;-16.235;-18.433;-3.723
1;0.075;-0.034;1.063;-14.648;-13.855;-2.869
1;0.095;-0.044;1.094;-13.245;-8.301;-3.296
1;0.099;-0.051;1.107;-11.169;-5.005;-5.432
1;0.097;-0.059;1.116;-7.568;-2.93;-6.836
1;0.089;-0.069;1.13;-4.15;-2.625;-6.226
1;0.091;-0.071;1.13;-0.549;-2.014;-3.845
1;0.102;-0.065;1.12;1.587;-0.488;-1.587
1;0.119;-0.053;1.106;2.502;1.709;-0.549
1;0.127;-0.043;1.1;2.258;3.967;-0.427
1;0.127;-0.037;1.09;2.869;5.493;-0.793
1;0.116;-0.035;1.062;5.31;6.775;-1.221
1;0.108;-0.045;1.031;7.812;7.751;-1.892
1;0.101;-0.059;1.001;9.155;7.202;-2.808
1;0.095;-0.073;0.969;9.888;6.897;-3.052
1;0.096;-0.08;0.939;9.705;5.737;-2.38
1;0.098;-0.083;0.93;8.24;3.662;-1.709
1;0.095;-0.088;0.929;6.714;1.465;-1.77
1;0.083;-0.086;0.932;5.249;-0.61;-2.197
1;0.072;-0.083;0.943;4.15;-2.563;-1.77
1;0.064;-0.077;0.954;4.15;-3.357;-1.099
1;0.067;-0.068;0.951;3.967;-1.892;-0.854
1;0.082;-0.05;0.945;3.54;0.61;-0.916
1;0.089;-0.041;0.949;2.93;3.235;-1.038
1;0.081;-0.044;0.961;3.601;5.432;-1.038
1;0.078;-0.054;0.965;6.165;6.653;-0.854
1;-0.406;-1.062;1.249;-0.61;39.551;-9.46
1;-0.451;-1.194;1.2;0.366;43.213;-3.052
1;-0.472;-1.285;1.122;0.732;40.405;7.141
1;-0.488;-1.34;1.07;-0.427;30.762;20.569
1;-0.49;-1.367;1.035;-4.456;17.944;35.583
1;-0.491;-1.359;0.993;-9.827;8.484;49.377
1;-0.473;-1.313;0.938;-15.076;5.005;62.378
1;-0.471;-1.326;0.884;-19.592;6.042;72.876
1;-0.49;-1.329;0.804;-23.315;9.583;78.674
1;-0.52;-1.283;0.697;-25.024;12.756;85.327
1;-0.567;-1.223;0.592;-27.649;11.963;96.497
1;-0.581;-1.08;0.486;-33.508;7.996;111.694
1;-0.549;-0.865;0.375;-40.771;1.648;128.54
1;-0.552;-0.632;0.296;-48.462;-9.216;144.592
1;-0.5;-0.304;0.203;-57.495;-23.193;156.067
1;-0.423;0.061;0.142;-65.613;-36.316;162.537
1;-0.429;0.382;0.166;-70.74;-50.659;164.49
1;-0.451;0.685;0.204;-73.242;-61.768;162.72
1;-0.442;1.046;0.185;-71.167;-61.279;161.865
1;-0.423;1.383;0.151;-68.298;-54.81;163.818
1;-0.419;1.69;0.126;-73.303;-46.265;167.053
1;-0.339;1.973;0.158;-90.271;-33.997;169.556
1;-0.233;2.215;0.254;-113.037;-23.743;170.41
1;-0.057;2.419;0.473;-132.202;-21.423;172.058
1;0.158;2.612;0.854;-147.644;-30.884;175.903
1;0.398;2.788;1.292;-159.363;-35.522;174.011
1;0.631;2.843;1.703;-154.907;-10.681;163.94
1;0.908;2.763;1.906;-133.789;28.625;141.724
1;1.153;2.582;1.857;-93.384;71.472;110.535
1;1.285;2.328;1.588;-40.283;100.525;75.378
1;1.318;2.065;1.249;7.263;106.628;36.194
1;1.253;1.775;0.95;40.588;96.313;-1.587
1;1.087;1.518;0.744;61.035;74.219;-32.166
1;0.889;1.312;0.635;72.083;43.152;-54.26
1;0.682;1.165;0.594;76.172;8.484;-70.923
1;0.506;1.091;0.6;74.463;-19.226;-83.496
1;0.37;1.027;0.639;67.627;-32.593;-91.858
1;0.3;0.983;0.676;58.105;-32.959;-97.961
1;0.219;0.953;0.706;50.293;-25.757;-104.065
1;0.115;0.935;0.758;46.143;-21.118;-109.558
1;0.019;0.945;0.828;49.316;-23.743;-113.647
1;-0.068;0.933;0.889;62.439;-29.846;-115.906
1;-0.087;0.916;0.886;80.75;-32.349;-114.136
1;-0.055;0.868;0.837;94.971;-27.771;-108.154
1;-0.018;0.841;0.783;99.67;-20.203;-103.149
1;0.045;0.824;0.756;96.008;-15.991;-102.051
1;0.037;0.779;0.735;92.041;-11.475;-100.647
1;0.113;0.629;0.703;87.402;-3.296;-98.755
1;0.136;0.481;0.699;80.139;0.183;-96.069
1;0.121;0.344;0.684;75.195;-1.526;-94.849
1;0.087;0.217;0.684;74.341;-7.507;-96.069
1;0.021;0.087;0.703;75.684;-16.418;-99.365
1;-0.071;-0.012;0.701;76.294;-24.78;-104.065
1;-0.132;-0.064;0.702;73.12;-30.64;-106.445
1;-0.173;-0.121;0.71;63.599;-32.349;-105.408
1;-0.195;-0.167;0.725;50.049;-32.288;-105.042
1;-0.201;-0.255;0.767;35.95;-31.189;-104.492
1;-0.247;-0.364;0.871;22.827;-29.297;-102.417
1;-0.285;-0.433;0.939;13;-23.987;-96.436
1;-0.292;-0.481;0.972;8.85;-17.273;-85.815
1;-0.317;-0.494;1.002;8.789;-15.625;-74.89
1;-0.323;-0.51;1.028;12.878;-14.282;-65.308
1;-0.335;-0.519;1.04;19.47;-10.376;-57.556
1;-0.372;-0.499;1.033;26.001;-6.653;-52.124
1;-0.39;-0.494;1.044;29.602;-2.747;-48.096
1;-0.402;-0.507;1.053;30.823;4.7;-44.556
1;-0.401;-0.517;1.024;32.837;15.015;-43.64
1;-0.411;-0.525;0.992;33.875;22.888;-43.152
1;-0.42;-0.553;0.968;33.813;28.992;-40.039
1;-0.378;-0.602;0.952;33.875;32.227;-34.119
1;-0.232;-0.704;0.882;33.325;35.767;-24.048
1;-0.011;-0.84;0.784;29.419;41.748;-10.742
1;0.239;-0.912;0.686;15.564;45.471;0.61
1;0.42;-0.915;0.665;-9.338;38.452;6.47
1;0.443;-0.776;0.726;-38.025;17.029;2.38
1;0.289;-0.57;0.849;-63.171;-21.606;-12.939
1;0.049;-0.372;1.018;-78.735;-68.726;-32.288
1;-0.246;-0.208;1.228;-83.74;-106.567;-47.791
1;-0.476;-0.026;1.351;-79.285;-121.887;-52.979
1;-0.526;0.089;1.404;-67.383;-111.755;-45.349
1;-0.468;0.082;1.415;-53.101;-85.022;-31.067
1;-0.355;0.041;1.347;-41.87;-50.354;-18.921
1;-0.248;0.025;1.247;-35.583;-15.137;-11.902
1;-0.116;0.033;1.161;-33.203;12.024;-2.625
1;0.019;0.04;1.094;-34.424;31.433;7.446
1;0.143;0.046;1.057;-37.598;45.959;11.353
1;0.22;0.034;1.025;-39.185;53.162;8.423
1;0.271;0.025;0.989;-36.194;53.833;5.249
1;0.338;0.019;0.974;-27.527;51.208;3.967
1;0.379;-0.009;0.933;-13.55;49.683;1.343
1;0.39;-0.047;0.908;0.916;44.495;-5.005
1;0.314;-0.084;0.934;11.414;32.288;-15.503
1;0.169;-0.115;0.985;17.761;20.447;-25.391
1;0.071;-0.145;1.005;23.376;13.916;-30.884
1;0.013;-0.183;1.001;28.503;10.681;-32.471
1;-0.034;-0.212;0.993;30.823;7.507;-32.288
1;-0.07;-0.234;0.974;29.846;2.93;-31.189
1;-0.082;-0.238;0.949;26.184;-2.014;-28.381
1;-0.069;-0.222;0.929;20.081;-5.859;-24.17
1;-0.05;-0.19;0.936;12.634;-7.935;-18.86
1;-0.022;-0.164;0.951;4.883;-8.789;-14.526
1;-0.005;-0.141;0.942;1.648;-9.46;-11.658
1;0.01;-0.111;0.92;2.563;-9.46;-10.803
1;0.011;-0.078;0.909;4.639;-8.728;-11.963
1;-0.004;-0.071;0.95;5.493;-7.751;-14.648
1;-0.038;-0.086;0.979;7.69;-5.554;-16.174
1;-0.056;-0.095;0.967;13.184;-3.54;-16.907
1;-0.054;-0.107;0.943;18.066;-3.479;-16.113
1;-0.05;-0.125;0.929;19.714;-2.747;-13.367
1;-0.052;-0.147;0.92;18.982;-0.122;-10.132
1;-0.049;-0.159;0.905;17.822;2.625;-6.47
1;-0.038;-0.166;0.895;15.32;4.028;-2.197
1;-0.019;-0.16;0.905;10.986;4.211;1.77
1;0.002;-0.153;0.914;6.47;3.845;5.127
1;0.021;-0.137;0.926;3.174;2.136;7.385
1;0.04;-0.103;0.94;0;-1.16;9.094
1;0.073;-0.083;0.953;-2.319;-2.625;10.315
1;0.086;-0.071;0.962;-3.723;-2.991;10.071
1;0.095;-0.051;0.969;-4.395;-3.601;10.01
1;-0.414;-0.876;1.371;21.912;29.907;5.249
1;-0.453;-1.014;1.312;27.161;44.067;2.686
1;-0.494;-1.159;1.248;31.738;53.284;2.441
1;-0.518;-1.277;1.165;34.546;55.725;4.211
1;-0.532;-1.383;1.093;36.011;51.147;11.597
1;-0.509;-1.443;1.034;36.194;38.879;24.719
1;-0.513;-1.451;0.97;33.081;19.714;40.344
1;-0.518;-1.412;0.896;27.771;0.244;56.885
1;-0.522;-1.387;0.837;22.522;-12.756;74.951
1;-0.534;-1.331;0.788;15.076;-20.752;93.811
1;-0.535;-1.236;0.724;3.845;-25.391;112.122
1;-0.518;-1.113;0.664;-10.803;-27.161;127.197
1;-0.516;-0.965;0.589;-27.283;-25.024;138
1;-0.498;-0.758;0.48;-40.771;-20.63;145.264
1;-0.495;-0.556;0.371;-50.049;-18.494;151.489
1;-0.511;-0.322;0.283;-57.678;-21.24;157.41
1;-0.507;-0.005;0.229;-62.439;-28.687;162.781
1;-0.507;0.35;0.204;-61.89;-39.124;169.678
1;-0.476;0.726;0.152;-58.167;-49.072;176.208
1;-0.425;1.055;0.079;-59.204;-54.993;178.955
1;-0.406;1.357;0.004;-69.336;-55.176;177.063
1;-0.421;1.67;-0.047;-84.351;-53.284;174.683
1;-0.353;2.029;0.021;-107.544;-53.65;175.232
1;-0.244;2.32;0.255;-140.991;-52.673;177.063
1;-0.055;2.544;0.581;-173.401;-43.091;178.162
1;0.145;2.756;0.941;-188.782;-36.255;173.462
1;0.365;2.887;1.296;-184.937;-29.297;162.72
1;0.63;2.914;1.629;-172.852;-23.926;145.813
1;0.887;2.856;1.884;-158.02;-10.681;120.3
1;1.099;2.682;1.935;-129.456;28.259;94.849
1;1.231;2.432;1.727;-78.918;79.041;67.688
1;1.245;2.18;1.362;-18.921;106.628;31.677
1;1.21;1.926;0.98;25.391;100.342;-6.531
1;1.102;1.658;0.695;53.955;77.087;-33.203
1;0.959;1.427;0.524;72.144;49.133;-51.27
1;0.799;1.279;0.427;81.421;18.982;-67.078
1;0.66;1.208;0.363;82.275;-6.287;-81.177
1;0.54;1.182;0.361;75.195;-21.301;-93.018
1;0.374;1.15;0.429;62.866;-28.503;-102.051
1;0.241;1.102;0.536;49.438;-30.518;-108.032
1;0.116;1.091;0.654;40.588;-29.663;-110.657
1;0.026;1.126;0.721;41.748;-28.076;-109.619
1;0.023;1.129;0.741;53.711;-26.184;-105.957
1;0.086;1.093;0.721;69.092;-24.902;-102.173
1;0.122;1.058;0.683;81.116;-24.597;-102.234
1;0.082;1.073;0.642;88.684;-28.32;-105.774
1;0.051;1.032;0.629;91.797;-33.875;-109.131
1;0.001;0.913;0.637;91.98;-35.339;-111.633
1;-0.074;0.794;0.642;90.82;-29.419;-112.915
1;-0.127;0.642;0.648;88.562;-18.799;-113.953
1;-0.137;0.38;0.677;83.923;-7.751;-116.15
1;-0.146;0.146;0.711;75.623;-0.977;-117.676
1;-0.175;-0.01;0.739;67.139;-0.793;-117.981
1;-0.217;-0.109;0.793;60.974;-6.958;-116.699
1;-0.253;-0.203;0.852;58.044;-14.709;-110.046
1;-0.275;-0.259;0.881;58.777;-19.592;-99.731
1;-0.274;-0.301;0.907;59.021;-23.743;-89.905
1;-0.264;-0.334;0.943;54.443;-24.658;-82.153
1;-0.29;-0.374;0.988;46.997;-22.156;-78.674
1;-0.328;-0.437;1.056;37.903;-18.005;-77.942
1;-0.34;-0.52;1.124;29.663;-10.498;-75.745
1;-0.367;-0.589;1.172;25.024;-2.93;-73.486
1;-0.382;-0.589;1.194;23.56;2.441;-73.12
1;-0.404;-0.625;1.237;23.01;8.789;-72.021
1;-0.432;-0.664;1.288;22.339;17.456;-67.139
1;-0.445;-0.666;1.304;25.269;28.198;-58.96
1;-0.425;-0.66;1.287;33.63;38.574;-50.781
1;-0.402;-0.666;1.264;42.847;47.668;-44.189
1;-0.329;-0.708;1.206;49.561;54.626;-40.894
1;-0.18;-0.824;1.104;55.603;63.354;-36.804
1;0.054;-0.947;0.944;57.19;71.472;-29.175
1;0.3;-1.031;0.783;52.917;72.998;-22.705
1;0.397;-1.022;0.674;42.053;57.678;-28.931
1;0.294;-0.89;0.675;24.048;20.752;-50.72
1;0.067;-0.689;0.796;3.052;-26.733;-74.341
1;-0.223;-0.545;1.005;-12.695;-64.575;-85.938
1;-0.544;-0.416;1.242;-19.47;-86.426;-85.999
1;-0.741;-0.305;1.401;-10.803;-84.717;-70.007
1;-0.704;-0.328;1.419;11.658;-60.852;-41.809
1;-0.531;-0.35;1.238;37.109;-27.161;-17.273
1;-0.361;-0.335;1.02;51.88;-1.465;-7.324
1;-0.257;-0.379;0.902;51.758;13.977;-5.005
1;-0.193;-0.414;0.818;44.983;26.123;-3.235
1;-0.124;-0.414;0.744;36.499;34.058;0.61
1;-0.041;-0.386;0.698;27.161;37.109;9.949
1;0.041;-0.359;0.648;20.264;36.987;20.386
1;0.13;-0.325;0.582;17.578;35.034;27.588
1;0.215;-0.281;0.545;15.259;30.579;32.654
1;0.285;-0.255;0.534;11.475;25.635;34.851
1;0.323;-0.249;0.554;5.31;18.799;30.151
1;0.315;-0.218;0.616;-3.662;7.935;19.592
1;0.318;-0.162;0.686;-13.733;-2.991;7.568
1;0.303;-0.135;0.791;-21.24;-13.367;-3.906
1;0.205;-0.14;0.936;-24.841;-23.682;-13.672
1;0.096;-0.146;1.066;-23.56;-28.381;-17.639
1;0.029;-0.156;1.158;-18.005;-24.231;-13.977
1;0.029;-0.161;1.19;-9.644;-14.954;-6.958
1;0.054;-0.173;1.152;-0.61;-5.432;-3.723
1;0.096;-0.177;1.095;3.662;1.099;-5.554
1;0.127;-0.205;1.056;3.052;8.484;-8.484
1;0.133;-0.226;1.016;1.221;15.747;-10.803
1;0.141;-0.241;0.984;0.854;18.86;-10.559
1;0.156;-0.249;0.957;0.549;18.25;-7.019
1;0.173;-0.227;0.936;-0.061;15.198;-3.174
1;0.185;-0.212;0.931;-1.404;10.437;-1.099
1;0.175;-0.193;0.933;-2.563;5.798;0.61
1;0.188;-0.167;0.941;-4.211;2.197;2.502
1;0.189;-0.148;0.952;-5.676;0.366;3.601
1;0.163;-0.131;0.976;-6.104;-1.953;2.197
1;0.148;-0.119;0.994;-5.066;-3.54;0.793
1;0.153;-0.11;1.01;-3.052;-3.845;0.916
1;0.152;-0.113;1.02;-0.366;-3.601;-0.061
1;0.142;-0.122;1.01;1.587;-2.014;-2.686
1;0.139;-0.134;1;2.319;0.671;-5.127
1;0.133;-0.158;1.01;1.404;2.075;-6.348
1;0.112;-0.172;1.002;0.671;1.16;-7.263
1;0.105;-0.182;0.985;1.953;0.671;-6.836
1;0.108;-0.19;0.968;2.441;-0.244;-4.578
1;0.111;-0.194;0.965;1.892;-1.526;-1.465
1;-0.406;-1.194;1.05;12.634;12.39;15.076
1;-0.436;-1.281;0.98;7.568;15.686;21.729
1;-0.463;-1.358;0.908;0;17.09;32.532
1;-0.478;-1.411;0.841;-8.911;14.709;45.593
1;-0.503;-1.389;0.778;-18.433;8.667;60.669
1;-0.549;-1.334;0.72;-26.794;1.709;77.576
1;-0.58;-1.283;0.668;-33.997;-3.845;95.093
1;-0.577;-1.225;0.609;-42.969;-7.996;113.403
1;-0.562;-1.139;0.54;-55.054;-11.23;131.836
1;-0.572;-0.964;0.469;-69.153;-16.663;149.597
1;-0.544;-0.663;0.389;-82.458;-23.437;165.955
1;-0.495;-0.281;0.332;-93.689;-32.227;176.27
1;-0.458;0.072;0.321;-98.816;-46.265;179.993
1;-0.412;0.457;0.322;-98.511;-61.157;179.077
1;-0.359;0.845;0.343;-93.384;-71.594;174.133
1;-0.327;1.159;0.416;-85.388;-77.698;166.016
1;-0.323;1.401;0.467;-77.576;-74.768;155.273
1;-0.351;1.634;0.441;-75.623;-55.176;141.663
1;-0.378;1.797;0.361;-83.435;-19.714;130.31
1;-0.354;1.917;0.265;-99.304;18.494;127.258
1;-0.179;2.045;0.193;-117.249;46.326;132.751
1;0.035;2.265;0.294;-133.545;49.561;141.785
1;0.305;2.584;0.561;-146.423;36.194;144.165
1;0.627;2.797;1.043;-159.729;14.648;143.677
1;0.915;2.911;1.519;-161.377;-0.061;134.338
1;1.155;2.888;1.802;-139.587;12.817;113.647
1;1.341;2.642;1.706;-90.332;54.871;81.116
1;1.328;2.278;1.381;-26.306;90.515;37.109
1;1.198;1.912;1.001;27.405;94.116;-6.592
1;0.996;1.528;0.738;62.744;73.792;-36.316
1;0.771;1.238;0.639;80.078;39.734;-53.406
1;0.576;1.101;0.623;82.703;2.991;-62.988
1;0.465;1.058;0.652;77.271;-24.902;-68.665
1;0.411;1.018;0.663;70.984;-32.898;-72.021
1;0.386;0.968;0.664;64.27;-29.358;-76.416
1;0.361;0.929;0.672;58.716;-22.583;-81.909
1;0.335;0.937;0.687;55.542;-17.944;-84.106
1;0.317;0.967;0.719;56.335;-20.508;-84.045
1;0.266;1.003;0.787;63.232;-32.104;-84.778
1;0.202;0.995;0.841;74.829;-47.424;-87.952
1;0.166;0.942;0.861;86.487;-54.871;-90.515
1;0.179;0.82;0.84;94.666;-46.448;-89.233
1;0.195;0.708;0.777;97.229;-30.396;-87.769
1;0.206;0.612;0.688;93.75;-17.883;-89.661
1;0.228;0.562;0.603;87.158;-12.146;-91.187
1;0.232;0.498;0.56;78.918;-14.343;-90.454
1;0.208;0.425;0.549;70.251;-20.935;-88.623
1;0.17;0.373;0.557;61.768;-29.358;-85.449
1;0.137;0.31;0.603;52.002;-37.476;-81.665
1;0.129;0.18;0.697;42.175;-42.969;-78.369
1;0.079;0.102;0.781;34.18;-46.021;-77.637
1;0.032;0.048;0.878;28.015;-49.683;-79.834
1;-0.008;-0.047;0.979;25.208;-49.5;-82.275
1;-0.041;-0.127;1.039;27.405;-44.189;-83.374
1;-0.071;-0.176;1.044;31.982;-37.842;-83.191
1;-0.099;-0.212;1.062;34.424;-36.804;-82.52
1;-0.194;-0.272;1.093;33.63;-39.063;-84.229
1;-0.284;-0.299;1.115;32.41;-39.124;-85.449
1;-0.365;-0.336;1.139;31.494;-35.706;-83.374
1;-0.403;-0.356;1.156;31.006;-29.541;-78.491
1;-0.411;-0.404;1.179;29.358;-20.813;-73.303
1;-0.391;-0.487;1.17;27.893;-9.338;-69.763
1;-0.371;-0.539;1.144;26.489;0.793;-69.275
1;-0.375;-0.556;1.137;22.766;6.165;-67.688
1;-0.409;-0.585;1.165;18.555;11.536;-64.148
1;-0.428;-0.613;1.177;18.005;18.188;-58.655
1;-0.427;-0.589;1.168;22.339;24.78;-49.438
1;-0.4;-0.556;1.154;30.396;31.189;-39.856
1;-0.363;-0.554;1.131;39.429;40.344;-34.302
1;-0.308;-0.605;1.063;48.096;52.185;-35.767
1;-0.225;-0.669;0.957;55.847;64.636;-39.917
1;-0.071;-0.738;0.798;59.692;75.989;-39.795
1;0.13;-0.803;0.64;58.411;83.984;-34.058
1;0.258;-0.862;0.519;51.27;81.848;-31.982
1;0.276;-0.803;0.475;34.119;61.401;-40.71
1;0.154;-0.662;0.568;10.803;25.635;-56.274
1;-0.041;-0.526;0.771;-10.986;-11.169;-69.519
1;-0.296;-0.465;1.022;-22.583;-40.894;-77.271
1;-0.524;-0.413;1.245;-19.897;-56.458;-71.533
1;-0.569;-0.338;1.343;-5.31;-53.589;-49.622
1;-0.501;-0.26;1.319;16.785;-41.443;-26.611
1;-0.378;-0.25;1.217;38.33;-26.489;-14.832
1;-0.249;-0.273;1.071;50.049;-9.521;-13.123
1;-0.17;-0.317;0.959;50.781;5.554;-14.526
1;-0.109;-0.353;0.86;43.579;18.127;-14.221
1;-0.053;-0.376;0.777;35.034;24.963;-9.094
1;0.013;-0.363;0.706;26.855;24.231;1.16
1;0.086;-0.321;0.662;18.982;17.883;14.038
1;0.152;-0.272;0.641;10.315;10.803;23.865
1;0.196;-0.223;0.648;0.366;5.737;28.442
1;0.234;-0.152;0.679;-10.315;2.075;28.015
1;0.25;-0.113;0.742;-19.836;-0.122;23.315
1;0.216;-0.098;0.821;-25.94;-2.075;16.418
1;0.187;-0.086;0.883;-27.588;-4.089;11.658
1;0.182;-0.075;0.927;-26.245;-5.615;8.789
1;0.167;-0.074;0.975;-23.56;-9.46;6.348
1;0.136;-0.091;1.029;-20.325;-12.817;4.211
1;0.116;-0.108;1.076;-17.334;-13.916;2.93
1;0.108;-0.115;1.108;-15.015;-12.756;3.052
1;0.111;-0.121;1.12;-13.306;-8.728;2.991
1;0.12;-0.131;1.105;-11.536;-3.174;1.892
1;0.134;-0.134;1.088;-10.132;0.916;0.305
1;0.141;-0.142;1.066;-8.362;3.906;-0.916
1;0.147;-0.146;1.042;-6.104;5.249;-1.343
1;0.148;-0.147;1.028;-3.845;6.165;-0.793
1;0.146;-0.142;1.021;-2.502;7.08;-0.549
1;0.149;-0.137;1.016;-1.282;8.789;-0.366
1;0.154;-0.131;1.013;-0.732;9.521;0
1;0.151;-0.12;1.001;-0.427;8.789;0.305
1;0.147;-0.118;0.984;1.099;7.629;0.122
1;0.154;-0.112;0.97;2.563;5.554;0.122
1;0.165;-0.106;0.972;2.319;2.869;0.671
1;0.169;-0.107;0.979;1.709;0.671;0.366
1;0.166;-0.101;0.989;1.343;-0.732;-0.61
1;0.153;-0.104;1;0.366;-2.075;-1.648
1;0.139;-0.107;1.002;0.122;-3.113;-2.319
1;0.124;-0.109;0.996;0.977;-2.808;-2.625
1;0.111;-0.117;0.983;1.77;-1.648;-2.686
1;0.104;-0.108;0.977;1.831;-0.549;-1.953
1;-0.026;2.448;0.587;-159.363;-43.274;138.611
1;0.143;2.435;0.66;-139.099;-14.221;121.277
1;0.345;2.356;0.702;-129.089;4.578;119.812
1;0.516;2.35;0.807;-130.798;7.324;124.023
1;0.711;2.475;1.025;-138.245;-3.601;124.268
1;0.899;2.584;1.341;-147.461;-25.269;112.244
1;1.058;2.655;1.666;-144.226;-30.029;88.562
1;1.107;2.511;1.87;-120.605;-11.292;56.03
1;1.06;2.26;1.829;-67.81;17.151;24.17
1;0.951;1.937;1.605;-2.014;38.147;-7.629
1;0.811;1.702;1.297;48.828;41.931;-40.833
1;0.681;1.483;1.037;79.59;36.56;-65.125
1;0.539;1.348;0.823;96.497;26.062;-78.735
1;0.488;1.28;0.659;105.53;13.062;-88.318
1;0.441;1.185;0.568;108.521;3.723;-94.666
1;0.386;1.068;0.523;105.713;0.366;-99.182
1;0.326;0.949;0.514;99.06;1.282;-102.661
1;0.29;0.883;0.511;89.905;1.892;-101.99
1;0.29;0.908;0.515;80.872;0.061;-95.642
1;0.301;0.934;0.547;73.242;-4.822;-89.6
1;0.308;0.941;0.562;68.115;-9.033;-88.257
1;0.318;0.953;0.546;66.284;-10.681;-87.891
1;0.319;0.95;0.514;66.833;-13.245;-86.304
1;0.319;0.938;0.495;67.322;-19.592;-84.717
1;0.294;0.891;0.496;66.711;-24.902;-83.801
1;0.25;0.781;0.51;64.88;-25.085;-85.388
1;0.203;0.636;0.538;62.134;-21.729;-89.539
1;0.159;0.472;0.573;59.937;-17.456;-91.492
1;0.128;0.271;0.608;59.265;-13.55;-91.858
1;0.073;0.114;0.623;59.082;-13.611;-92.468
1;0.053;-0.01;0.626;56.274;-15.259;-92.224
1;0.036;-0.145;0.638;52.368;-15.991;-90.698
1;-0.022;-0.263;0.656;48.218;-19.043;-90.332
1;-0.101;-0.334;0.677;43.762;-25.574;-91.187
1;-0.181;-0.377;0.728;36.743;-35.034;-88.928
1;-0.261;-0.434;0.815;27.954;-42.175;-84.839
1;-0.361;-0.485;0.911;20.325;-44.617;-80.688
1;-0.464;-0.485;0.989;12.939;-44.067;-77.026
1;-0.525;-0.511;1.085;6.47;-37.109;-71.899
1;-0.592;-0.556;1.195;1.099;-23.254;-67.505
1;-0.645;-0.584;1.275;-2.625;-5.249;-63.477
1;-0.663;-0.61;1.32;-3.723;10.925;-59.204
1;-0.681;-0.617;1.333;-2.258;24.597;-54.81
1;-0.674;-0.626;1.346;0.61;35.706;-46.753
1;-0.671;-0.655;1.356;6.409;46.204;-38.086
1;-0.635;-0.68;1.336;13.428;53.833;-31.25
1;-0.508;-0.749;1.286;19.531;62.012;-23.193
1;-0.265;-0.863;1.144;23.621;72.998;-14.709
1;0.01;-0.931;0.92;22.217;83.069;-7.751
1;0.202;-0.938;0.743;10.315;78.979;-5.554
1;0.252;-0.846;0.707;-14.038;52.673;-14.099
1;0.125;-0.658;0.823;-44.739;8.85;-27.71
1;-0.1;-0.47;1.02;-67.2;-38.269;-34.79
1;-0.364;-0.286;1.255;-75.989;-74.768;-33.936
1;-0.59;-0.089;1.472;-73.425;-90.515;-26.367
1;-0.588;0.004;1.57;-57.495;-79.956;-7.996
1;-0.363;0.1;1.547;-33.02;-50.964;11.414
1;-0.181;0.119;1.438;-6.226;-25.024;17.639
1;-0.067;0.091;1.276;20.081;-5.92;9.766
1;-0.025;0.048;1.119;41.26;5.066;-3.601
1;0.005;-0.031;1.007;52.002;14.282;-15.137
1;0.017;-0.097;0.905;53.345;26.672;-18.799
1;0.036;-0.133;0.807;48.401;37.476;-15.93
1;0.095;-0.152;0.717;41.199;42.053;-8.057
1;0.159;-0.16;0.636;35.034;40.039;2.38
1;0.221;-0.153;0.581;28.503;32.471;13
1;0.271;-0.129;0.565;18.982;21.973;20.874
1;0.286;-0.096;0.599;7.08;11.047;24.048
1;0.273;-0.061;0.674;-6.042;2.93;22.461
1;0.227;-0.033;0.765;-16.541;-4.211;16.968
1;0.187;-0.001;0.856;-23.621;-10.071;11.719
1;0.146;0.013;0.934;-27.405;-12.939;6.165
1;0.11;0.009;1.002;-27.161;-11.536;1.038
1;0.063;-0.01;1.068;-25.452;-10.559;-2.38
1;0.034;-0.026;1.118;-22.156;-9.46;-3.967
1;0.034;-0.045;1.134;-16.968;-5.493;-4.089
1;0.039;-0.068;1.122;-12.451;-0.732;-4.333
1;0.053;-0.083;1.087;-10.498;4.15;-4.639
1;0.075;-0.095;1.046;-10.132;8.606;-4.15
1;0.088;-0.099;1.004;-10.376;11.475;-2.686
1;0.099;-0.094;0.975;-11.78;12.573;-1.16
1;0.114;-0.073;0.95;-14.465;11.78;1.953
1;0.143;-0.042;0.932;-17.395;10.925;6.897
1;0.165;-0.013;0.923;-18.372;8.606;12.207
1;0.179;0.029;0.93;-17.822;4.211;16.113
1;0.191;0.069;0.934;-16.785;0.366;18.921
1;0.215;0.108;0.948;-16.541;-1.709;20.447
1;0.248;0.159;0.971;-18.127;-3.601;18.738
1;0.249;0.181;1;-18.86;-6.958;15.259
1;0.251;0.196;1.027;-16.174;-10.498;12.207
1;0.245;0.201;1.054;-12.146;-12.329;7.996
1;0.236;0.209;1.072;-7.568;-11.414;2.808
1;0.224;0.206;1.077;-2.502;-9.155;-1.709
1;0.209;0.186;1.068;2.014;-6.592;-5.981
1;0.183;0.158;1.057;5.188;-3.845;-9.705
1;0.156;0.128;1.052;7.141;-1.953;-11.536
1;0.134;0.108;1.044;8.179;-0.61;-11.414
1;0.127;0.087;1.033;9.766;0.183;-9.949
1;0.127;0.069;1.022;11.475;0.122;-8.118
1;0.127;0.061;1.007;11.963;0.793;-6.531
1;0.129;0.051;0.995;12.024;2.563;-6.104
1;0.128;0.04;0.977;11.108;3.845;-6.653
1;0.113;0.029;0.964;9.583;4.211;-6.47
1;0.108;0.025;0.954;8.789;3.54;-5.249
1;0.114;0.024;0.952;8.057;1.404;-4.211
1;0.113;0.021;0.955;7.507;-0.732;-3.479
1;0.115;0.027;0.954;7.141;-1.221;-3.479
1;0.116;0.022;0.959;6.531;-1.343;-4.639
1;0.114;0.012;0.96;5.432;0;-7.08
1;0.111;0.003;0.949;3.296;3.357;-10.681
1;0.104;-0.008;0.935;0;8.118;-14.343
1;0.095;-0.019;0.922;-3.235;12.634;-16.602
1;0.08;-0.03;0.914;-4.578;14.893;-16.602
1;0.062;-0.041;0.907;-3.845;13.733;-14.648
1;0.06;-0.064;0.913;-1.892;10.376;-10.986
1;0.043;-0.07;0.923;-2.136;6.042;-6.47
1;0.043;-0.072;0.926;-2.991;3.357;-2.502
1;0.058;-0.058;0.937;-5.127;2.808;1.221
1;0.073;-0.045;0.945;-7.996;3.113;4.7
1;-0.026;2.634;0.464;-164.673;-47.974;201.355
1;0.02;2.694;0.65;-158.936;-12.878;175.354
1;0.329;2.826;0.882;-157.532;2.502;181.763
1;0.779;3.006;1.269;-161.682;10.62;198.669
1;1.109;3.134;1.627;-157.715;11.841;187.927
1;1.346;3.118;1.836;-131.531;11.475;150.818
1;1.497;2.848;1.836;-82.214;28.015;109.802
1;1.513;2.49;1.584;-23.987;53.833;66.589
1;1.364;2.182;1.284;22.888;64.27;17.273
1;1.097;1.826;1.06;55.664;54.81;-27.466
1;0.844;1.5;0.897;81.177;37.048;-59.265
1;0.628;1.192;0.754;101.318;16.968;-78.674
1;0.43;0.976;0.616;112;-4.883;-93.75
1;0.312;0.792;0.522;111.694;-17.944;-104.675
1;0.25;0.632;0.482;101.074;-21.79;-109.68
1;0.2;0.529;0.49;82.825;-21.912;-112.671
1;0.144;0.476;0.539;62.988;-19.958;-112.488
1;0.086;0.463;0.608;47.791;-17.273;-107.544
1;0.061;0.481;0.66;40.527;-18.555;-99.609
1;0.086;0.538;0.711;37.537;-22.4;-91.675
1;0.084;0.613;0.776;36.804;-23.437;-86.487
1;0.059;0.682;0.81;40.161;-22.766;-84.9
1;0.047;0.702;0.804;47.058;-21.851;-86.06
1;0.05;0.667;0.795;53.467;-20.02;-89.111
1;0.054;0.617;0.775;55.542;-13.245;-92.102
1;0.078;0.523;0.739;54.016;-0.793;-95.215
1;0.129;0.38;0.669;51.941;13.123;-97.778
1;0.15;0.255;0.606;49.5;19.836;-99.06
1;0.157;0.166;0.575;44.861;14.709;-96.436
1;0.167;0.081;0.591;38.147;2.319;-89.905
1;0.126;0.021;0.625;29.663;-13.611;-83.252
1;0.062;0.055;0.687;20.081;-31.433;-77.087
1;0.019;0.138;0.811;9.094;-46.814;-69.885
1;-0.034;0.181;0.983;-0.244;-55.725;-65.186
1;-0.078;0.17;1.143;-3.662;-54.321;-65.063
1;-0.072;0.142;1.246;-1.038;-44.8;-67.261
1;-0.069;0.127;1.263;5.981;-31.616;-71.838
1;-0.071;0.103;1.224;14.038;-18.799;-77.881
1;-0.082;0.04;1.185;19.592;-8.057;-81.726
1;-0.109;-0.028;1.144;26.245;1.221;-81.238
1;-0.147;-0.094;1.089;35.461;4.211;-79.163
1;-0.209;-0.142;1.057;43.579;-0.305;-76.355
1;-0.263;-0.165;1.052;47.363;-6.226;-69.275
1;-0.282;-0.197;1.053;47.363;-7.751;-58.35
1;-0.268;-0.234;1.042;45.288;-2.38;-48.828
1;-0.228;-0.261;1.037;39.246;4.944;-40.161
1;-0.179;-0.298;1.031;30.579;13.916;-33.691
1;-0.159;-0.346;1.016;24.597;23.01;-32.471
1;-0.161;-0.387;1.002;21.545;29.175;-33.325
1;-0.14;-0.4;0.98;21.24;33.142;-32.776
1;-0.113;-0.407;0.944;23.132;36.072;-30.151
1;-0.098;-0.433;0.911;25.33;41.443;-27.954
1;-0.082;-0.464;0.886;25.757;46.143;-28.992
1;-0.012;-0.527;0.87;23.682;49.194;-28.992
1;0.104;-0.64;0.844;21.301;53.955;-26.062
1;0.241;-0.756;0.775;18.677;60.486;-23.01
1;0.392;-0.803;0.7;12.39;60.12;-21.79
1;0.468;-0.795;0.686;-0.61;45.776;-25.574
1;0.411;-0.691;0.729;-16.602;20.447;-35.339
1;0.185;-0.479;0.834;-30.396;-12.451;-51.086
1;-0.05;-0.375;0.958;-38.513;-43.884;-66.406
1;-0.296;-0.328;1.13;-40.649;-60.852;-72.51
1;-0.471;-0.301;1.281;-38.025;-62.195;-64.941
1;-0.519;-0.306;1.357;-27.954;-48.95;-44.495
1;-0.459;-0.335;1.323;-12.085;-30.64;-22.888
1;-0.35;-0.325;1.207;1.038;-13.916;-10.498
1;-0.245;-0.338;1.089;5.981;1.099;-5.31
1;-0.182;-0.371;1.007;5.005;13.123;-3.296
1;-0.113;-0.401;0.943;0.671;21.912;-0.61
1;-0.039;-0.422;0.893;-4.578;25.757;5.249
1;0.056;-0.408;0.848;-9.827;25.33;13.489
1;0.143;-0.356;0.807;-13.55;21.667;20.569
1;0.194;-0.302;0.813;-15.259;15.015;23.499
1;0.214;-0.258;0.841;-14.954;7.507;21.057
1;0.225;-0.22;0.882;-14.099;1.038;13.794
1;0.188;-0.199;0.923;-14.648;-3.54;4.15
1;0.145;-0.196;0.959;-15.503;-5.066;-3.54
1;0.124;-0.193;0.968;-15.991;-4.15;-8.789
1;0.148;-0.189;0.932;-16.418;-3.54;-11.658
1;0.173;-0.183;0.886;-17.761;-7.568;-13.489
1;0.15;-0.173;0.895;-21.057;-16.174;-13.672
1;0.105;-0.164;0.948;-25.94;-23.193;-8.301
1;0.108;-0.137;0.986;-28.564;-24.841;2.441
1;0.138;-0.077;1.005;-30.64;-24.841;13.306
1;0.182;-0.005;1.016;-32.471;-23.56;20.874
1;0.217;0.055;1.031;-33.997;-19.836;22.827
1;0.232;0.108;1.05;-33.569;-15.625;20.691
1;0.247;0.147;1.05;-29.541;-12.268;18.494
1;0.265;0.178;1.044;-23.376;-10.132;15.93
1;0.277;0.195;1.033;-17.151;-8.667;12.634
1;0.27;0.193;1.033;-11.719;-6.897;9.705
1;0.261;0.181;1.03;-7.568;-4.15;6.592
1;0.249;0.164;1.028;-4.395;-1.404;2.93
1;0.234;0.144;1.041;-2.075;0.671;-0.061
1;0.212;0.114;1.045;0;3.235;-2.075
1;0.194;0.087;1.047;2.136;4.578;-4.333
1;0.158;0.052;1.05;5.005;2.93;-7.202
1;0.127;0.02;1.045;7.935;0.671;-9.033
1;0.107;-0.008;1.026;9.888;-0.122;-9.46
1;0.099;-0.033;1.003;10.437;-0.244;-9.338
1;0.095;-0.045;0.982;9.399;0.488;-8.972
1;0.085;-0.057;0.965;7.751;0.916;-7.812
1;0.081;-0.064;0.95;6.47;0.366;-6.226
1;0.087;-0.062;0.931;6.226;-0.61;-3.906
1;0.101;-0.054;0.908;5.615;-1.709;-1.77
1;0.114;-0.046;0.893;4.456;-2.136;-0.427
1;0.13;-0.041;0.889;2.502;-1.587;0.793
1;0.149;-0.031;0.886;0.305;-0.305;1.831
1;0.163;-0.024;0.882;-1.404;0.549;2.075
1;0.177;-0.023;0.875;-2.625;0.793;1.709
1;0.19;-0.023;0.867;-4.333;1.038;0.977
1;0.194;-0.024;0.864;-6.775;1.038;0.488
1;0.192;-0.022;0.862;-9.46;0.671;-0.122
1;0.19;-0.019;0.881;-11.719;-0.671;-0.183
1;0.185;-0.004;0.917;-13.367;-4.272;0.916
1;0.182;0.012;0.958;-14.16;-8.484;2.625
1;0.174;0.029;0.991;-12.939;-11.719;3.479
1;0.163;0.042;1.021;-12.085;-13.184;2.991
1;0.151;0.061;1.037;-11.353;-12.573;1.831
1;-0.373;-1.012;1.188;70.007;55.969;5.127
1;-0.397;-1.105;1.064;79.468;57.129;3.845
1;-0.425;-1.201;0.93;87.036;51.208;6.775
1;-0.447;-1.272;0.81;90.332;37.598;12.878
1;-0.468;-1.332;0.714;88.318;20.447;23.499
1;-0.495;-1.366;0.631;79.224;2.991;35.828
1;-0.531;-1.38;0.566;65.063;-9.033;51.636
1;-0.551;-1.336;0.473;46.997;-14.954;72.266
1;-0.567;-1.248;0.388;26.062;-14.771;95.337
1;-0.569;-1.102;0.277;2.319;-11.047;120.117
1;-0.561;-0.917;0.165;-23.193;-6.409;145.325
1;-0.525;-0.684;0.054;-50.171;-4.333;172.791
1;-0.435;-0.369;-0.036;-74.829;-7.019;198.425
1;-0.308;-0.057;-0.109;-95.276;-16.174;215.149
1;-0.192;0.42;-0.174;-112;-28.503;221.313
1;-0.036;0.88;-0.165;-124.512;-41.87;214.6
1;0.08;1.232;-0.093;-132.019;-52.429;200.439
1;0.082;1.45;-0.01;-134.155;-58.838;185.12
1;-0.012;1.657;0.08;-133.85;-63.66;169.495
1;-0.023;1.867;0.144;-139.648;-62.378;160.828
1;0.141;2.105;0.225;-156.006;-53.406;163.879
1;0.394;2.328;0.372;-175.903;-44.617;168.152
1;0.601;2.537;0.589;-192.871;-45.837;160.767
1;0.729;2.746;0.883;-200.073;-62.561;142.09
1;0.845;2.838;1.272;-195.862;-80.994;118.042
1;0.918;2.75;1.655;-180.481;-86.426;92.712
1;0.932;2.593;1.935;-147.156;-69.885;66.467
1;0.918;2.377;1.982;-92.285;-31.494;39.246
1;0.867;2.147;1.78;-25.635;7.019;10.193
1;0.734;1.894;1.494;27.405;25.452;-21.851
1;0.611;1.602;1.239;60.547;29.724;-47.18
1;0.525;1.348;1.029;80.872;30.334;-60.913
1;0.431;1.119;0.856;91.858;24.292;-68.97
1;0.391;0.976;0.722;95.093;15.503;-77.393
1;0.347;0.901;0.627;91.064;6.226;-82.336
1;0.308;0.865;0.607;81.055;-2.319;-83.435
1;0.285;0.88;0.629;69.702;-5.92;-82.214
1;0.276;0.93;0.653;60.547;-8.362;-80.078
1;0.31;1.027;0.672;54.321;-14.038;-80.2
1;0.307;1.109;0.732;52.979;-22.705;-85.938
1;0.277;1.125;0.796;59.692;-27.466;-94.604
1;0.21;1.083;0.835;71.228;-25.94;-104.614
1;0.105;0.988;0.839;83.496;-21.912;-113.342
1;0.034;0.859;0.819;92.224;-16.235;-119.08
1;-0.027;0.728;0.783;96.436;-7.751;-120.422
1;-0.036;0.596;0.721;97.839;0.61;-116.333
1;-0.016;0.5;0.666;95.642;3.845;-109.375
1;-0.008;0.446;0.629;90.515;-0.244;-102.539
1;-0.022;0.391;0.642;84.29;-9.277;-96.13
1;-0.045;0.315;0.695;76.111;-19.409;-92.102
1;-0.07;0.234;0.76;68.604;-24.719;-89.844
1;-0.107;0.175;0.808;63.11;-23.56;-89.355
1;-0.133;0.138;0.848;58.594;-20.325;-88.44
1;-0.147;0.104;0.878;54.688;-15.869;-85.083
1;-0.144;0.044;0.911;52.917;-8.484;-81.604
1;-0.145;-0.047;0.95;52.795;-1.953;-80.017
1;-0.165;-0.156;0.996;53.772;0.916;-80.139
1;-0.217;-0.235;1.022;55.847;1.587;-80.444
1;-0.244;-0.315;1.022;60.669;2.441;-77.332
1;-0.25;-0.388;1.01;66.956;5.31;-72.144
1;-0.273;-0.434;0.982;72.205;7.08;-69.397
1;-0.305;-0.472;0.949;74.402;8.667;-67.871
1;-0.322;-0.502;0.938;72.876;11.963;-65.552
1;-0.369;-0.559;0.94;70.129;18.86;-62.195
1;-0.391;-0.622;0.918;67.444;27.283;-59.143
1;-0.378;-0.693;0.906;64.026;34.607;-54.749
1;-0.349;-0.745;0.889;58.594;39.001;-48.34
1;-0.309;-0.801;0.881;52.246;44.067;-40.344
1;-0.184;-0.904;0.856;45.044;49.805;-32.043
1;0.021;-1.057;0.798;36.682;56.702;-22.034
1;0.221;-1.189;0.72;25.391;61.401;-10.071
1;0.378;-1.209;0.675;6.409;53.894;-3.174
1;0.387;-1.092;0.735;-20.081;31.006;-6.836
1;0.228;-0.882;0.858;-48.828;-3.418;-20.264
1;-0.052;-0.627;1.002;-68.726;-40.771;-33.63
1;-0.328;-0.414;1.188;-76.599;-69.58;-43.884
1;-0.493;-0.302;1.347;-72.754;-77.209;-45.654
1;-0.53;-0.239;1.424;-55.664;-60.669;-35.522
1;-0.472;-0.244;1.419;-25.208;-35.645;-21.606
1;-0.342;-0.248;1.274;7.263;-15.198;-11.597
1;-0.214;-0.266;1.095;30.762;0.916;-9.338
1;-0.146;-0.31;0.966;42.664;12.024;-12.756
1;-0.097;-0.359;0.882;43.213;17.944;-14.526
1;-0.031;-0.379;0.822;35.339;24.78;-11.169
1;0.055;-0.369;0.77;25.574;30.884;-4.395
1;0.16;-0.337;0.716;18.127;33.386;2.991
1;0.27;-0.303;0.657;13.428;33.447;9.644
1;0.34;-0.273;0.62;9.827;30.457;11.414
1;0.369;-0.252;0.628;4.15;24.109;9.583
1;0.346;-0.248;0.686;-3.357;14.404;7.141
1;0.286;-0.247;0.782;-8.911;2.136;3.906
1;0.217;-0.239;0.866;-10.803;-9.033;1.038
1;0.155;-0.231;0.934;-10.681;-17.334;-0.488
1;0.103;-0.23;0.983;-8.911;-20.813;-0.854
1;0.076;-0.236;1.016;-7.263;-19.714;-0.977
1;0.08;-0.236;1.025;-7.08;-14.954;-1.099
1;0.098;-0.234;1.019;-7.751;-9.46;-1.465
1;0.111;-0.233;1.016;-7.935;-5.92;-2.136
1;0.112;-0.229;1.009;-6.653;-5.188;-2.38
1;0.122;-0.225;1.004;-4.089;-5.005;-1.587
1;0.13;-0.217;1;-1.648;-4.333;-0.183
1;0.139;-0.207;0.985;-0.183;-2.319;1.221
1;0.149;-0.202;0.962;0.183;0.977;2.014
1;0.154;-0.195;0.944;-1.038;4.15;2.441
1;0.149;-0.191;0.934;-2.563;5.493;3.601
1;0.143;-0.187;0.924;-2.319;4.395;5.127
1;0.145;-0.177;0.905;-1.221;2.38;6.958
1;0.159;-0.162;0.901;-1.892;0.305;8.667
1;0.156;-0.157;0.926;-4.028;-1.709;9.521
1;0.148;-0.149;0.948;-5.432;-3.418;8.545
1;0.149;-0.133;0.945;-5.188;-4.456;6.958
1;0.157;-0.121;0.958;-5.493;-4.761;6.836
1;0.158;-0.12;0.978;-6.531;-3.906;7.019
1;0.16;-0.114;0.996;-6.165;-2.075;5.676
1;0.157;-0.111;0.999;-4.639;-0.671;2.869
1;0.161;-0.113;0.974;-2.136;0.61;0.244
1;0.172;-0.118;0.95;0.061;0.732;-1.282
1;0.178;-0.132;0.935;1.099;0.305;-0.916
1;0.184;-0.139;0.922;1.709;0.183;0.732
1;-0.417;-1.131;1.086;30.029;34.546;5.066
1;-0.44;-1.213;1.009;31.738;36.865;9.949
1;-0.45;-1.267;0.922;30.884;36.133;20.02
1;-0.459;-1.311;0.852;26.367;32.288;32.898
1;-0.468;-1.321;0.78;19.409;25.024;45.41
1;-0.481;-1.307;0.721;10.559;15.198;57.312
1;-0.508;-1.272;0.698;0.793;5.615;69.458
1;-0.5;-1.212;0.656;-5.554;0.61;82.214
1;-0.507;-1.164;0.626;-8.911;-2.136;96.558
1;-0.541;-1.099;0.612;-16.479;-5.066;111.816
1;-0.556;-0.996;0.572;-26.184;-5.432;126.16
1;-0.567;-0.832;0.508;-39.001;-3.357;139.771
1;-0.55;-0.655;0.464;-54.81;1.16;151.917
1;-0.517;-0.422;0.427;-68.848;7.629;161.194
1;-0.456;-0.163;0.393;-78.064;14.771;169.128
1;-0.339;0.143;0.385;-79.834;18.86;174.866
1;-0.201;0.394;0.419;-69.275;18.616;172.546
1;-0.153;0.656;0.426;-48.889;14.099;162.842
1;-0.111;0.942;0.353;-29.114;7.629;151.978
1;-0.062;1.168;0.294;-15.747;2.747;141.785
1;-0.076;1.313;0.246;-14.038;-2.93;134.705
1;-0.091;1.435;0.184;-23.865;-9.399;134.338
1;0.016;1.643;0.176;-43.518;-18.25;142.517
1;0.209;1.95;0.289;-73.181;-30.579;154.358
1;0.417;2.195;0.518;-108.093;-48.584;163.086
1;0.57;2.357;0.87;-136.23;-66.772;159.79
1;0.672;2.517;1.283;-148.376;-75.928;150.146
1;0.85;2.602;1.626;-143.921;-74.402;137.756
