aX,aY,aZ,gX,gY,gZ
-0.218,-0.37,2.201,126.34299999999999,-1.4040000000000001,-58.044
-0.076,-0.057,2.112,60.791000000000004,41.748000000000005,-63.293
-0.196,0.003,1.959,-2.563,78.125,-99.182
-0.11199999999999999,-0.212,1.565,-70.49600000000001,100.708,-151.917
0.696,-0.6829999999999999,0.45299999999999996,-98.999,89.478,-175.293
0.884,-0.715,0.795,-6.957999999999999,20.325,-124.512
0.278,-0.373,1.635,111.084,-48.157,-57.617
0.228,-0.33399999999999996,1.5959999999999999,169.861,-44.617,-27.405
0.491,-0.369,1.3030000000000002,189.392,-18.677,-22.888
0.342,-0.35700000000000004,1.4040000000000001,184.998,-46.753,-26.366999999999997
0.19699999999999998,-0.332,1.433,182.861,-69.458,-28.686999999999998
0.16699999999999998,-0.425,1.278,192.505,-64.453,-34.302
0.17600000000000002,-0.519,1.0490000000000002,197.571,-54.26,-43.273999999999994
0.139,-0.511,0.892,190.674,-53.284,-53.345
0.057999999999999996,-0.33399999999999996,0.805,180.481,-56.335,-60.974
-0.022000000000000002,-0.205,0.713,171.387,-57.007,-58.777
-0.044000000000000004,-0.16699999999999998,0.645,159.97299999999998,-52.611999999999995,-51.575
-0.055999999999999994,-0.047,0.7070000000000001,150.024,-43.396,-45.653999999999996
-0.077,-0.12300000000000001,0.73,143.921,-31.066999999999997,-36.438
0.002,-0.23399999999999999,0.7440000000000001,138.0,-19.409000000000002,-28.076
0.064,-0.33299999999999996,0.818,125.12200000000001,-22.888,-18.372
0.083,-0.375,0.889,107.42200000000001,-32.593,-14.587
0.046,-0.335,0.972,97.53399999999999,-34.607,-22.644000000000002
-0.024,-0.46299999999999997,0.937,96.741,-43.823,-26.794
-0.071,-0.542,0.888,98.999,-51.758,-30.029
-0.071,-0.499,0.8590000000000001,106.262,-49.071999999999996,-38.574
-0.07,-0.563,0.71,121.887,-48.096000000000004,-47.913000000000004
-0.171,-0.485,0.539,137.329,-49.622,-59.387
-0.313,-0.318,0.41700000000000004,142.822,-52.123999999999995,-60.364
-0.361,-0.473,0.263,137.878,-48.523,-51.331
-0.39299999999999996,-0.545,0.255,126.221,-36.804,-47.54600000000001
-0.384,-0.518,0.336,114.868,-21.423000000000002,-46.81399999999999
-0.397,-0.499,0.314,120.178,-2.136,-44.983000000000004
-0.43,-0.475,0.345,132.874,15.442,-42.114
-0.42200000000000004,-0.525,0.358,139.893,23.254,-33.569
-0.413,-0.546,0.37,141.541,32.104,-22.095
-0.5589999999999999,-0.542,0.42200000000000004,147.339,33.936,-12.695
-0.561,-0.684,0.342,158.936,29.114,-11.536
-0.42,-0.738,0.187,155.884,20.386,-28.625
-0.39,-0.6579999999999999,0.22399999999999998,144.409,0.488,-46.50899999999999
-0.49,-0.5920000000000001,0.16399999999999998,137.329,-16.663,-52.49
-0.52,-0.644,0.027000000000000003,134.27700000000002,-23.375999999999998,-57.495
-0.617,-0.657,-0.2,135.071,-25.085,-59.692
-0.688,-0.5870000000000001,-0.29100000000000004,131.592,-27.283,-54.26
-0.737,-0.586,-0.485,132.996,-23.743000000000002,-45.776
-0.833,-0.536,-0.716,137.14600000000002,-20.813000000000002,-33.141999999999996
-1.102,-0.51,-0.573,150.81799999999998,-27.344,-13.0
-1.103,-0.6659999999999999,-1.043,199.646,-35.522,36.56
-1.015,-0.486,-1.35,191.956,-22.156,87.463
-1.078,-0.504,-1.3119999999999998,133.972,-27.465999999999998,115.479
-0.9590000000000001,-0.485,-1.3519999999999999,91.919,-39.978,137.14600000000002
-0.6970000000000001,-0.303,-1.385,40.771,-45.653999999999996,131.592
-0.7090000000000001,-0.475,-1.26,7.996,-50.598,98.206
-0.7490000000000001,-0.461,-1.149,-9.583,-40.527,67.87100000000001
-0.6709999999999999,-0.5670000000000001,-0.951,-23.315,-18.738,44.983000000000004
-0.525,-0.716,-0.79,-36.986999999999995,4.0889999999999995,31.372
-0.413,-0.784,-0.623,-54.016000000000005,19.104,28.625
-0.34299999999999997,-0.736,-0.43,-73.181,27.588,26.061999999999998
-0.317,-0.754,-0.21100000000000002,-78.491,32.471,23.070999999999998
-0.29,-0.7829999999999999,-0.182,-71.594,36.621,23.743000000000002
-0.303,-0.826,-0.168,-64.819,27.221999999999998,27.893
-0.317,-0.898,-0.166,-58.228,9.949,32.532
-0.345,-0.912,-0.248,-55.053999999999995,-6.348,36.743
-0.42100000000000004,-0.825,-0.299,-58.167,-24.78,34.18
-0.5379999999999999,-0.757,-0.35700000000000004,-68.726,-39.856,28.991999999999997
-0.589,-0.737,-0.413,-87.891,-53.162,23.436999999999998
-0.675,-0.755,-0.375,-106.75,-64.941,19.409000000000002
-0.664,-0.747,-0.424,-118.40799999999999,-65.002,19.226
-0.5820000000000001,-0.716,-0.46399999999999997,-129.27200000000002,-60.303000000000004,19.47
-0.501,-0.7609999999999999,-0.457,-145.569,-55.908,15.625
-0.401,-0.76,-0.45299999999999996,-160.52200000000002,-53.955,10.132
-0.299,-0.726,-0.409,-173.95,-55.115,1.2209999999999999
-0.27399999999999997,-0.718,-0.204,-183.41099999999997,-60.791000000000004,-11.658
-0.354,-0.753,-0.033,-178.101,-55.176,-19.409000000000002
-0.312,-0.41700000000000004,-0.005,-164.97799999999998,-38.147,-10.559000000000001
-0.324,-0.127,0.052000000000000005,-158.752,-31.372,3.235
-0.505,-0.218,0.021,-167.66400000000002,-35.705999999999996,7.385
-0.6459999999999999,-0.201,-0.027000000000000003,-176.331,-47.974,22.644000000000002
-0.626,-0.136,0.027000000000000003,-192.322,-73.486,43.64
-0.6659999999999999,-0.069,0.35,-213.745,-95.64200000000001,58.228
-0.5820000000000001,-0.14400000000000002,0.767,-216.98,-78.857,55.42
-0.221,-0.305,0.461,-215.393,-20.691,36.621
-0.057,-0.285,0.34700000000000003,-217.834,-0.6709999999999999,19.104
-0.03,-0.235,0.551,-221.19099999999997,-9.094,-7.141
-0.223,-0.25,0.8340000000000001,-215.515,-8.972000000000001,-40.1
-0.573,-0.28,1.101,-203.36900000000003,9.033,-43.762
-0.341,-0.006999999999999999,0.976,-197.998,60.73,-11.414000000000001
-0.09300000000000001,0.261,0.996,-193.90900000000002,99.365,18.799
-0.377,0.262,0.946,-199.707,112.854,36.743
-0.382,0.136,1.195,-218.018,84.10600000000001,54.993
-0.11800000000000001,0.18600000000000003,1.361,-230.774,42.236000000000004,76.782
0.14,0.22899999999999998,1.643,-252.625,13.732999999999999,95.459
0.26899999999999996,0.107,1.902,-263.55,-9.766,94.54299999999999
0.314,-0.064,2.119,-245.11700000000002,-19.531,77.57600000000001
0.281,-0.11699999999999999,2.162,-188.11,-14.465,53.04
0.22899999999999998,-0.262,2.0469999999999997,-119.385,3.052,29.114
0.276,-0.27399999999999997,1.81,-61.401,12.817,10.01
0.271,-0.203,1.495,-23.375999999999998,9.521,-3.113
0.19899999999999998,-0.16399999999999998,1.37,-7.996,-7.446000000000001,-10.01
0.069,0.062,1.189,-6.897,-14.465,-10.62
-0.038,0.195,0.865,-31.189,2.258,0.5489999999999999
0.026000000000000002,0.272,1.018,-73.792,20.081,25.513
0.14,0.11,1.227,-107.42200000000001,52.733999999999995,41.992
0.237,-0.073,1.3119999999999998,-123.47399999999999,89.17200000000001,39.734
0.321,-0.35700000000000004,1.611,-132.446,88.745,40.039
0.38799999999999996,-0.302,2.123,-120.178,52.49,44.006
0.34600000000000003,-0.39799999999999996,1.983,-87.219,41.992,36.071999999999996
0.278,-0.262,1.9469999999999998,-65.491,10.437000000000001,25.635
0.11900000000000001,-0.318,1.867,-32.227,-16.235,13.306
0.157,-0.32,1.6740000000000002,7.751,-4.456,2.93
0.128,-0.32799999999999996,1.392,29.419,-1.099,-6.042000000000001
0.085,-0.348,1.2690000000000001,36.865,-1.2209999999999999,-11.475
-0.002,-0.303,1.1159999999999999,40.649,1.892,-13.306
-0.054000000000000006,-0.253,0.983,38.391,10.742,-17.761
-0.18,-0.226,0.821,25.94,19.958,-18.86
-0.27399999999999997,-0.29,0.619,14.587,17.151,-15.380999999999998
-0.305,-0.389,0.7709999999999999,2.747,0.305,-9.888
-0.292,-0.38,0.82,-10.681,-1.709,-5.737
-0.28600000000000003,-0.39,0.89,-16.663,4.456,-5.371
0.39,-0.255,1.98,-162.659,-17.944000000000003,67.81
0.294,-0.305,1.964,-138.123,-34.302,46.265
0.359,-0.337,1.776,-98.51100000000001,-23.743000000000002,31.128
0.35700000000000004,-0.456,1.48,-62.744,-4.5169999999999995,22.461
0.809,-0.268,1.306,-39.673,10.01,18.311
0.397,-0.271,0.743,-42.053000000000004,26.000999999999998,-3.052
0.221,-0.075,1.475,-63.66,-48.645,-15.32
-0.18,-0.13699999999999998,1.514,-93.506,-52.063,21.301
-0.113,-0.479,1.632,-117.31,-30.09,41.26
-0.036000000000000004,-1.127,1.758,-111.87700000000001,-11.414000000000001,41.382
-0.37799999999999995,-2.114,4.0,-139.282,-11.292,41.26
0.254,-1.045,3.779,-135.559,-36.255,18.433
-0.63,-0.818,1.504,2.258,-64.63600000000001,-54.565
0.46,0.782,1.739,59.448,-89.417,-28.259
-1.189,-0.184,0.754,176.636,-92.285,7.202000000000001
-0.40399999999999997,-0.8740000000000001,0.66,155.273,-17.151,9.583
0.12,-0.493,0.945,72.998,19.653,36.986999999999995
0.18100000000000002,-0.29600000000000004,0.7070000000000001,88.98899999999999,-14.709000000000001,26.794
0.034,-0.24100000000000002,0.5429999999999999,96.741,-58.777,4.944
-0.1,-0.11800000000000001,0.469,85.93799999999999,-79.285,-5.492999999999999
-0.14300000000000002,-0.19699999999999998,0.285,70.923,-64.392,-11.536
-0.168,-0.304,0.111,55.603,-49.988,-18.433
-0.23399999999999999,-0.303,0.192,40.527,-51.758,-20.325
-0.253,-0.256,0.436,29.358,-37.842,-20.508000000000003
-0.33,-0.34,0.353,28.930999999999997,-4.395,-23.375999999999998
-0.374,-0.36700000000000005,0.42700000000000005,20.142,8.911,-20.63
-0.39399999999999996,-0.37799999999999995,0.534,8.118,15.380999999999998,-14.892999999999999
-0.38799999999999996,-0.368,0.623,-3.662,16.174,-7.568
-0.391,-0.349,0.728,-13.489,12.145999999999999,-2.563
-0.409,-0.348,0.8190000000000001,-19.47,3.662,-0.9159999999999999
-0.408,-0.36700000000000005,0.912,-21.301,-3.54,3.235
-0.36700000000000005,-0.446,0.934,-17.7,-6.104,9.155
-0.321,-0.515,0.96,-13.794,-4.0280000000000005,11.78
-0.294,-0.542,0.99,-13.489,-1.4040000000000001,12.512
-0.284,-0.542,1.03,-14.282,0.61,13.55
-0.271,-0.525,1.054,-11.719000000000001,3.052,14.587
-0.253,-0.525,1.056,-7.324,5.005,14.404000000000002
-0.235,-0.523,1.05,-5.005,4.578,14.099
-0.222,-0.515,1.041,-2.319,1.4040000000000001,12.878
-0.21600000000000003,-0.49200000000000005,1.016,0.244,-1.953,9.949
-0.24,-0.496,0.997,1.6480000000000001,-5.615,6.775
-0.18,-0.527,0.9670000000000001,2.075,-9.399,3.967
-0.149,-0.491,0.8959999999999999,1.892,-14.220999999999998,5.615
-0.147,-0.49,0.898,1.038,-17.639,3.6010000000000004
-0.158,-0.48200000000000004,0.885,0.061,-15.686,0.5489999999999999
-0.168,-0.46299999999999997,0.8590000000000001,-0.244,-13.0,0.61
-0.168,-0.45399999999999996,0.887,-0.305,-12.145999999999999,0.244
-0.18100000000000002,-0.45399999999999996,0.879,0.061,-6.47,-0.8540000000000001
-0.196,-0.45399999999999996,0.866,2.136,-4.822,-2.563
-0.222,-0.439,0.851,4.883,-4.395,-5.188
-0.254,-0.43,0.813,6.531000000000001,-4.272,-7.507000000000001
-0.276,-0.41100000000000003,0.807,6.409,-5.127000000000001,-8.85
-0.312,-0.4,0.787,4.883,-5.92,-9.338
-0.33399999999999996,-0.40399999999999997,0.774,2.991,-5.676,-8.057
-0.363,-0.395,0.7759999999999999,2.38,-4.0889999999999995,-5.066
-0.359,-0.37799999999999995,0.773,2.075,-0.61,-0.42700000000000005
-0.341,-0.389,0.7859999999999999,0.6709999999999999,3.113,4.211
-0.309,-0.426,0.797,-1.709,5.92,7.141
-0.28300000000000003,-0.447,0.828,-3.906,7.324,8.789
-0.271,-0.456,0.847,-4.395,7.751,8.484
-0.267,-0.452,0.841,-3.784,7.019,7.08
-0.243,-0.45899999999999996,0.8270000000000001,-2.991,5.066,6.042000000000001
-0.237,-0.451,0.8370000000000001,-2.319,2.319,4.0889999999999995
-0.257,-0.43,0.848,-2.8080000000000003,0.061,1.16
-0.28800000000000003,-0.414,0.8690000000000001,-2.93,-1.4040000000000001,0.183
-0.29100000000000004,-0.413,0.858,-2.197,-2.502,2.136
-0.284,-0.419,0.8540000000000001,-2.197,-2.8689999999999998,4.883
-0.278,-0.43200000000000005,0.851,-3.662,-3.4789999999999996,6.836
-0.256,-0.444,0.8590000000000001,-4.578,-3.906,8.484
-0.248,-0.452,0.8540000000000001,-3.967,-3.6010000000000004,9.155
-0.237,-0.457,0.85,-2.563,-3.418,9.46
-0.225,-0.45,0.8370000000000001,-1.892,-2.747,9.338
-0.22399999999999998,-0.44299999999999995,0.825,-2.563,-2.441,7.507000000000001
-0.21899999999999997,-0.449,0.828,-2.8689999999999998,-1.77,4.944
-0.217,-0.451,0.8240000000000001,-2.197,-0.366,2.319
-0.222,-0.44,0.8140000000000001,-1.831,0.5489999999999999,0.244
-0.23800000000000002,-0.42700000000000005,0.8140000000000001,-2.625,-0.122,-0.366
-0.243,-0.42700000000000005,0.8220000000000001,-4.0280000000000005,-0.732,0.5489999999999999
-0.252,-0.419,0.828,-5.371,-0.42700000000000005,2.258
-0.244,-0.428,0.8420000000000001,-6.836,0.305,3.967
-0.245,-0.444,0.8590000000000001,-7.935,1.2209999999999999,4.395
-0.251,-0.452,0.873,-7.935,1.77,4.456
-0.253,-0.446,0.887,-6.348,2.075,4.883
-0.249,-0.43700000000000006,0.883,-4.395,2.502,5.127000000000001
-0.239,-0.424,0.87,-3.54,2.075,4.7
-0.23800000000000002,-0.431,0.861,-4.333,0.244,3.418
-0.239,-0.43,0.862,-4.761,-1.465,2.258
-0.231,-0.433,0.843,-4.944,-1.6480000000000001,1.953
-0.231,-0.431,0.848,-6.104,-1.3430000000000002,1.831
-0.233,-0.42700000000000005,0.852,-7.568,-1.16,2.0140000000000002
-0.233,-0.429,0.861,-8.179,-1.038,2.563
-0.233,-0.434,0.868,-8.362,-1.2209999999999999,2.563
-0.235,-0.43200000000000005,0.8740000000000001,-8.606,-1.4040000000000001,2.441
-0.23800000000000002,-0.428,0.884,-8.911,-1.6480000000000001,1.77
-0.24,-0.431,0.907,-8.728,-4.272,0.488
-0.249,-0.42100000000000004,0.88,-7.874,-4.883,0.122
-0.24,-0.44,0.895,-7.019,-5.676,-0.42700000000000005
-0.247,-0.425,0.8809999999999999,-5.31,-4.7,0.366
-0.24600000000000002,-0.418,0.879,-3.6010000000000004,-3.235,1.465
-0.23800000000000002,-0.40700000000000003,0.873,-3.6010000000000004,-1.16,2.502
-0.259,-0.425,0.903,-3.7230000000000003,-0.9159999999999999,2.075
-0.276,-0.444,0.973,-2.8689999999999998,-0.7929999999999999,2.8080000000000003
-0.253,-0.439,0.9840000000000001,-1.953,-1.709,3.3569999999999998
-0.243,-0.431,0.9520000000000001,-1.465,-4.0280000000000005,1.6480000000000001
-0.239,-0.423,0.9059999999999999,-0.183,-5.249,0.061
-0.228,-0.41100000000000003,0.867,0.488,-3.967,-0.305
-0.228,-0.4,0.848,0.0,-2.502,-0.183
-0.228,-0.40399999999999997,0.851,-0.732,-1.587,0.061
-0.22399999999999998,-0.41600000000000004,0.866,-1.2819999999999998,-0.5489999999999999,-0.061
-0.221,-0.41600000000000004,0.8759999999999999,-0.7929999999999999,0.61,0.0
-0.231,-0.405,0.897,-0.42700000000000005,1.038,-0.6709999999999999
-0.242,-0.40399999999999997,0.915,-0.061,0.488,-1.099
-0.249,-0.397,0.9229999999999999,1.2819999999999998,0.061,-0.732
-0.239,-0.401,0.892,2.8080000000000003,-0.061,-0.5489999999999999
-0.23399999999999999,-0.42100000000000004,0.847,3.113,0.061,-0.732
-0.233,-0.41200000000000003,0.8370000000000001,1.6480000000000001,-1.038,-0.732
-0.245,-0.405,0.873,-0.6709999999999999,-3.174,-0.61
-0.24,-0.408,0.8809999999999999,-0.6709999999999999,-2.8689999999999998,-0.6709999999999999
-0.239,-0.408,0.875,0.7929999999999999,-1.2209999999999999,-0.9159999999999999
-0.08900000000000001,-0.659,2.055,25.635,65.55199999999999,39.246
-0.073,-0.645,2.154,42.908,62.683,26.489
-0.021,-0.632,2.169,65.857,63.232,12.512
0.005,-0.605,2.14,90.637,62.744,3.4789999999999996
0.022000000000000002,-0.563,2.0909999999999997,111.93799999999999,59.326,-0.122
0.032,-0.496,2.074,135.01,52.49,0.9159999999999999
0.113,-0.46299999999999997,2.005,155.701,50.964,3.906
0.17300000000000001,-0.426,1.858,166.62599999999998,53.65,0.061
0.203,-0.401,1.722,169.8,49.5,-8.057
0.205,-0.40399999999999997,1.6219999999999999,172.424,34.119,-18.005
0.177,-0.32799999999999996,1.475,178.467,19.836,-27.954
0.126,-0.183,1.401,190.308,14.770999999999999,-33.385999999999996
0.113,-0.114,1.3519999999999999,199.097,16.541,-31.006
0.13,-0.10300000000000001,1.248,198.05900000000003,23.682,-27.893
0.165,-0.172,1.206,195.74,26.855,-25.818
0.22899999999999998,-0.261,1.139,192.81,27.771,-27.039
0.21899999999999997,-0.22699999999999998,1.02,191.956,26.489,-36.194
0.131,-0.142,1.09,195.74,18.25,-44.128
0.14,-0.125,1.087,195.801,13.915999999999999,-43.457
0.135,-0.14,0.9490000000000001,199.768,15.503,-43.335
0.141,-0.23600000000000002,0.8240000000000001,213.013,9.705,-44.434
0.154,-0.225,0.6,221.863,5.492999999999999,-48.523
0.105,-0.192,0.431,222.595,1.892,-56.458
0.055,-0.182,0.363,216.919,-3.174,-58.96
-0.025,-0.162,0.318,207.39700000000002,-4.578,-58.044
-0.08800000000000001,-0.225,0.242,205.017,-2.747,-56.58
-0.146,-0.249,0.22399999999999998,205.75,-2.441,-54.871
-0.17300000000000001,-0.262,0.091,208.923,1.953,-55.481
-0.193,-0.332,-0.017,205.139,3.662,-56.885
-0.22,-0.369,-0.055999999999999994,198.24200000000002,4.5169999999999995,-58.777
-0.267,-0.34700000000000003,-0.16699999999999998,196.655,11.963,-61.218
-0.349,-0.364,-0.259,194.458,18.372,-60.181000000000004
-0.354,-0.39399999999999996,-0.292,183.044,19.775,-54.077
-0.36200000000000004,-0.46399999999999997,-0.389,169.495,20.081,-57.251000000000005
-0.41200000000000003,-0.467,-0.43799999999999994,163.208,16.724,-62.43899999999999
-0.46399999999999997,-0.46399999999999997,-0.371,154.358,5.981,-59.20399999999999
-0.506,-0.493,-0.419,149.719,-4.395,-55.42
-0.512,-0.506,-0.562,155.82299999999998,-12.634,-56.458
-0.547,-0.445,-0.703,157.471,-25.513,-55.603
-0.588,-0.45299999999999996,-0.833,146.851,-46.57,-52.795
-0.5920000000000001,-0.513,-0.981,136.78,-75.684,-51.208
-0.5870000000000001,-0.596,-1.133,140.93,-96.008,-41.26
-0.757,-0.473,-1.339,141.235,-95.09299999999999,-19.104
-0.7490000000000001,-0.46299999999999997,-1.455,125.79299999999999,-86.54799999999999,1.038
-0.8859999999999999,-0.433,-1.567,111.389,-78.064,21.423000000000002
-0.9620000000000001,-0.342,-1.631,94.84899999999999,-69.824,36.986999999999995
-0.888,-0.44,-1.599,70.557,-63.782,33.63
-0.727,-0.555,-1.5330000000000001,51.331,-50.72,27.283
-0.534,-0.655,-1.443,29.236,-26.489,25.33
-0.354,-0.6779999999999999,-1.297,-1.709,-3.113,32.715
-0.252,-0.7340000000000001,-1.067,-30.212,4.211,37.292
-0.193,-0.7609999999999999,-0.826,-46.93600000000001,2.258,37.659
-0.13699999999999998,-0.799,-0.7120000000000001,-51.696999999999996,4.822,34.119
-0.095,-0.813,-0.68,-50.537,12.085,26.916999999999998
-0.10300000000000001,-0.818,-0.6709999999999999,-52.611999999999995,17.029,17.273
-0.138,-0.8,-0.664,-59.753,14.526,8.484
-0.203,-0.767,-0.6509999999999999,-67.017,5.249,2.258
-0.272,-0.718,-0.652,-70.313,-5.492999999999999,-0.9159999999999999
-0.32899999999999996,-0.6709999999999999,-0.727,-72.693,-17.883,-2.747
-0.376,-0.654,-0.823,-75.684,-33.997,-3.418
-0.40700000000000003,-0.644,-0.8690000000000001,-82.458,-53.528,-2.258
-0.419,-0.599,-0.856,-92.773,-67.993,-0.244
-0.413,-0.575,-0.8490000000000001,-105.40799999999999,-70.068,1.6480000000000001
-0.373,-0.579,-0.848,-119.69,-63.66,2.93
-0.33799999999999997,-0.568,-0.794,-134.705,-53.833,3.3569999999999998
-0.303,-0.544,-0.718,-148.01,-40.344,2.258
-0.292,-0.513,-0.628,-158.142,-23.56,-0.732
-0.292,-0.461,-0.526,-165.1,-7.202000000000001,-3.052
-0.359,-0.365,-0.377,-171.44799999999998,3.7230000000000003,-4.456
-0.38299999999999995,-0.37,-0.307,-177.795,9.827,-2.625
-0.358,-0.391,-0.242,-183.77700000000002,9.155,1.709
-0.332,-0.41,-0.16699999999999998,-188.782,3.845,5.797999999999999
-0.273,-0.46,-0.165,-193.84799999999998,-0.305,6.042000000000001
-0.225,-0.447,-0.14400000000000002,-200.5,-5.371,4.822
-0.153,-0.45,-0.138,-207.703,-9.155,1.099
-0.121,-0.396,-0.092,-214.47799999999998,-11.292,-6.531000000000001
-0.18600000000000003,-0.195,0.035,-216.49200000000002,-11.047,-13.794
-0.237,-0.026000000000000002,0.177,-214.233,-9.521,-15.686
-0.345,-0.009000000000000001,0.248,-209.045,-8.728,-11.658
-0.409,0.141,0.374,-206.238,-10.254000000000001,6.7139999999999995
-0.414,0.175,0.5670000000000001,-220.398,-12.634,30.273000000000003
-0.307,0.06,0.6679999999999999,-244.385,-14.220999999999998,51.331
-0.177,-0.052000000000000005,0.7879999999999999,-259.644,-12.878,61.707
-0.096,-0.16399999999999998,1.0590000000000002,-260.681,-13.245,61.768
-0.05,-0.105,1.2670000000000001,-252.99099999999999,-0.977,53.04
-0.153,-0.127,1.614,-235.291,16.235,40.466
-0.095,-0.158,1.9780000000000002,-219.36,31.25,36.438
0.02,-0.23600000000000002,1.9409999999999998,-213.928,47.852,31.066999999999997
0.125,-0.265,1.952,-197.327,44.495,19.104
0.055,-0.39399999999999996,1.9409999999999998,-171.204,30.09,9.033
0.098,-0.384,1.838,-152.1,15.015,5.31
0.07200000000000001,-0.304,1.7369999999999999,-136.78,1.526,4.822
0.035,-0.349,1.829,-126.52600000000001,-11.23,5.859
0.10099999999999999,-0.48,1.903,-129.089,-8.301,4.761
0.009000000000000001,-0.573,1.8659999999999999,-128.113,10.376,-4.272
-0.067,-0.607,1.848,-117.432,23.987,-10.498
-0.132,-0.625,1.82,-104.492,24.901999999999997,-11.78
-0.174,-0.6659999999999999,1.771,-87.95200000000001,21.851,-13.184000000000001
-0.19699999999999998,-0.611,1.68,-68.726,23.743000000000002,-13.427999999999999
-0.017,-0.456,1.557,-51.331,31.616,-16.968
0.026000000000000002,-0.35,0.991,-50.354,47.302,-36.316
-0.039,-0.6990000000000001,1.052,-43.213,-8.484,-61.89
-0.19899999999999998,-0.613,1.36,-57.678000000000004,-27.221999999999998,-43.701
-0.136,-0.5,1.4340000000000002,-61.035,-20.752,-35.095
-0.083,-0.609,1.409,-63.843,5.676,-29.419
-0.134,-0.622,1.2790000000000001,-62.683,17.578,-8.179
-0.028999999999999998,-0.521,1.214,-60.913000000000004,16.785,13.245
0.06,-0.353,1.1909999999999998,-55.481,7.629,22.339000000000002
0.043,-0.273,1.148,-41.321000000000005,-6.775,19.104
0.052000000000000005,-0.37,1.124,-27.1,-16.785,4.395
-0.07,-0.369,0.94,-15.442,-16.663,-9.399
-0.18899999999999997,-0.434,1.021,-5.127000000000001,-28.503,-15.503
-0.21600000000000003,-0.377,1.002,-2.8689999999999998,-21.484,-10.193
-0.228,-0.355,0.929,-2.991,-7.385,-8.789
-0.205,-0.381,0.8590000000000001,-6.653,4.0889999999999995,-6.348
-0.172,-0.386,0.775,-11.047,8.24,-2.8689999999999998
-0.147,-0.41200000000000003,0.7609999999999999,-13.489,2.075,-1.892
-0.13699999999999998,-0.43,0.7829999999999999,-12.755999999999998,-8.728,-2.441
-0.145,-0.41,0.792,-10.254000000000001,-17.761,-2.8689999999999998
-0.10400000000000001,-0.368,2.025,79.773,65.918,18.738
-0.040999999999999995,-0.389,2.0580000000000003,91.37,69.214,19.104
0.057999999999999996,-0.426,2.057,99.54799999999999,73.914,16.418
0.141,-0.46,1.949,111.694,77.332,9.338
0.165,-0.433,1.9369999999999998,128.47899999999998,72.937,-1.2209999999999999
0.16899999999999998,-0.317,1.801,146.05700000000002,67.017,-12.939
0.128,-0.22699999999999998,1.7109999999999999,161.56,56.458,-22.095
0.14,-0.198,1.594,171.265,41.138000000000005,-26.794
0.151,-0.161,1.501,173.523,28.809,-31.006
0.134,-0.026000000000000002,1.361,177.30700000000002,23.56,-35.461
0.105,0.048,1.3259999999999998,185.12,17.822,-36.681999999999995
0.13699999999999998,-0.085,1.28,185.791,8.179,-33.080999999999996
0.21,-0.266,1.196,174.92700000000002,-1.3430000000000002,-31.372
0.249,-0.281,1.093,172.24099999999999,-10.071,-34.79
0.168,-0.188,1.187,184.143,-22.034000000000002,-39.734
0.10300000000000001,-0.052000000000000005,1.244,202.942,-24.414,-39.978
0.12,-0.129,1.169,215.576,-17.395,-37.659
0.19,-0.146,0.977,219.78799999999998,-7.324,-36.986999999999995
0.237,-0.19899999999999998,0.9059999999999999,220.33700000000002,-3.54,-40.039
0.24,-0.257,0.782,215.332,-2.502,-46.93600000000001
0.122,-0.19899999999999998,0.7120000000000001,216.30900000000003,-1.892,-55.358999999999995
0.1,-0.20199999999999999,0.604,225.28099999999998,-1.3430000000000002,-57.495
0.11,-0.243,0.42200000000000004,218.628,-3.967,-60.547
0.012,-0.27699999999999997,0.27399999999999997,205.261,-11.597000000000001,-65.613
-0.073,-0.335,0.161,198.547,-20.569000000000003,-67.932
-0.161,-0.32,0.032,200.378,-27.831999999999997,-68.115
-0.257,-0.354,-0.157,208.435,-26.366999999999997,-70.435
-0.353,-0.423,-0.409,213.135,-23.01,-73.792
-0.43700000000000006,-0.45899999999999996,-0.67,211.792,-24.291999999999998,-71.10600000000001
-0.461,-0.48200000000000004,-0.848,201.59900000000002,-32.41,-64.209
-0.521,-0.45799999999999996,-0.934,180.847,-44.617,-54.565
-0.619,-0.507,-0.93,157.715,-56.03,-44.617
-0.5760000000000001,-0.605,-0.8959999999999999,142.029,-56.58,-36.071999999999996
-0.62,-0.557,-0.912,133.911,-45.715,-19.409000000000002
-0.884,-0.37799999999999995,-0.9159999999999999,124.512,-40.283,-0.7929999999999999
-0.774,-0.48200000000000004,-0.868,110.962,-41.748000000000005,-2.8080000000000003
-0.701,-0.595,-0.6809999999999999,93.20100000000001,-45.105,-5.371
-0.613,-0.6729999999999999,-0.401,72.449,-37.964,1.892
-0.47700000000000004,-0.816,-0.163,47.607,-22.095,7.263
-0.34299999999999997,-0.915,0.085,28.625,-13.55,10.071
-0.249,-0.968,0.306,23.682,-15.747,9.644
-0.18899999999999997,-0.98,0.32,35.583,-20.325,3.906
-0.114,-0.958,0.125,62.683,-21.912,-7.08
-0.098,-0.883,-0.139,89.417,-24.535999999999998,-23.926
-0.163,-0.86,-0.369,101.074,-35.034,-42.236000000000004
-0.26,-0.8240000000000001,-0.599,100.83,-45.288000000000004,-54.81
-0.379,-0.715,-0.7929999999999999,97.656,-51.086000000000006,-58.35
-0.456,-0.6409999999999999,-1.001,91.98,-54.443000000000005,-54.931999999999995
-0.519,-0.6779999999999999,-1.1840000000000002,78.369,-59.692,-46.997
-0.57,-0.695,-1.22,58.35,-63.11,-35.278
-0.5579999999999999,-0.674,-1.172,33.691,-54.382,-21.973000000000003
-0.47200000000000003,-0.5720000000000001,-1.155,9.216000000000001,-33.691,-9.827
-0.46,-0.507,-1.089,-8.85,-11.597000000000001,-3.3569999999999998
-0.536,-0.645,-0.99,-24.109,7.69,-1.953
-0.486,-0.748,-0.8440000000000001,-40.039,24.230999999999998,6.897
-0.39399999999999996,-0.768,-0.6759999999999999,-54.504,33.63,19.592
-0.324,-0.852,-0.622,-62.256,37.72,21.362
-0.299,-0.89,-0.564,-62.43899999999999,32.166,16.846
-0.297,-0.8690000000000001,-0.528,-59.387,22.766,11.902000000000001
-0.28800000000000003,-0.8440000000000001,-0.58,-57.922,14.770999999999999,6.287000000000001
-0.308,-0.825,-0.643,-58.655,1.6480000000000001,1.099
-0.358,-0.7759999999999999,-0.654,-60.242,-14.099,-0.6709999999999999
-0.379,-0.7120000000000001,-0.7120000000000001,-62.927,-22.278000000000002,1.892
-0.373,-0.6559999999999999,-0.778,-69.458,-25.024,6.957999999999999
-0.349,-0.622,-0.799,-81.543,-27.954,13.062000000000001
-0.313,-0.608,-0.755,-98.755,-29.663,18.127
-0.258,-0.612,-0.731,-117.859,-24.475,18.921
-0.221,-0.569,-0.635,-134.216,-14.282,15.015
-0.21100000000000002,-0.5579999999999999,-0.557,-147.461,-2.197,8.85
-0.18899999999999997,-0.562,-0.46299999999999997,-159.119,7.935,2.625
-0.192,-0.525,-0.34,-168.457,18.921,-3.113
-0.215,-0.45399999999999996,-0.23600000000000002,-173.157,33.080999999999996,-9.766
-0.249,-0.408,-0.18600000000000003,-176.025,44.067,-15.075999999999999
-0.321,-0.326,-0.066,-180.78599999999997,47.18,-16.968
-0.38299999999999995,-0.298,0.01,-187.988,47.058,-15.137
-0.435,-0.295,0.019,-194.763,46.50899999999999,-10.01
-0.451,-0.3,0.08199999999999999,-200.928,40.71,-1.953
-0.409,-0.368,0.153,-212.03599999999997,34.241,4.883
-0.376,-0.418,0.213,-222.412,27.771,7.874
-0.37,-0.504,0.239,-221.497,25.574,5.432
-0.37,-0.58,0.287,-213.135,30.884,-1.709
-0.36700000000000005,-0.62,0.331,-210.327,46.082,-8.972000000000001
-0.198,-0.467,0.28,-215.393,71.22800000000001,-9.766
-0.198,-0.243,0.35600000000000004,-221.985,85.32700000000001,-0.5489999999999999
-0.185,0.131,0.596,-244.08,84.412,16.357
-0.332,0.8059999999999999,0.732,-258.362,68.237,37.476
-0.531,1.274,0.976,-233.521,12.450999999999999,68.237
-0.555,0.7040000000000001,1.507,-197.571,-60.059,75.07300000000001
-0.32799999999999996,0.032,1.8769999999999998,-172.546,-86.48700000000001,69.031
-0.266,-0.615,2.042,-192.56599999999997,-36.316,66.77199999999999
0.22699999999999998,-0.581,1.6640000000000001,-237.0,61.461999999999996,68.78699999999999
0.33399999999999996,-0.5660000000000001,1.6440000000000001,-221.863,60.913000000000004,65.55199999999999
0.20800000000000002,-0.753,2.0180000000000002,-197.327,40.833,34.18
0.155,-0.8079999999999999,1.945,-178.40599999999998,52.306999999999995,10.985999999999999
0.18100000000000002,-0.782,1.834,-163.87900000000002,57.8,1.2819999999999998
0.087,-0.555,1.7469999999999999,-155.457,65.857,-0.9159999999999999
-0.03,-0.154,1.703,-143.433,80.017,9.583
-0.083,0.07,1.7530000000000001,-131.042,82.764,26.305999999999997
-0.011000000000000001,0.21100000000000002,1.775,-130.005,81.543,36.316
0.018000000000000002,0.22399999999999998,1.768,-127.258,79.773,37.781
0.16699999999999998,-0.027999999999999997,1.7480000000000002,-111.45,75.928,27.831999999999997
0.381,-0.19899999999999998,1.615,-85.876,71.655,13.794
0.358,-0.321,0.9570000000000001,-66.406,66.406,-7.874
0.285,-0.6709999999999999,1.1159999999999999,-51.636,-15.686,-28.686999999999998
0.078,-0.395,1.308,-29.48,-73.425,-14.220999999999998
0.091,-0.374,1.3459999999999999,-25.451999999999998,-87.891,-24.17
0.063,-0.41200000000000003,1.079,-28.809,-69.092,-37.292
-0.062,-0.382,1.14,-30.029,-70.801,-37.476
-0.11199999999999999,-0.193,1.0390000000000001,-29.541,-72.021,-20.691
-0.16699999999999998,-0.068,0.9740000000000001,-24.048000000000002,-74.46300000000001,-4.7
-0.249,-0.149,1.02,-17.517,-86.304,4.822
-0.19699999999999998,-0.203,1.187,-26.245,-86.54799999999999,14.465
-0.141,-0.22,1.452,-42.847,-62.988,11.414000000000001
-0.147,-0.314,1.589,-38.94,-25.695999999999998,-2.38
-0.152,-0.35200000000000004,1.271,-28.87,15.380999999999998,-12.573
-0.09,-0.348,1.053,-27.221999999999998,29.541,-13.855
-0.10099999999999999,-0.345,1.2209999999999999,-20.935,14.099,-17.944000000000003
-0.184,-0.382,1.365,-14.648,-2.258,-24.048000000000002
-0.257,-0.344,1.2329999999999999,-11.23,-4.578,-22.644000000000002
0.203,-0.11599999999999999,2.3930000000000002,75.439,56.396,58.96
0.22,-0.091,2.45,98.755,52.185,47.24100000000001
0.319,-0.092,2.345,124.512,51.88,37.354
0.374,-0.019,2.1919999999999997,148.804,47.974,26.428
0.289,0.121,2.097,174.988,38.513000000000005,14.404000000000002
0.203,0.14,2.005,200.012,27.405,7.568
0.24100000000000002,0.14800000000000002,1.794,213.135,17.395,7.202000000000001
0.295,0.171,1.575,221.74099999999999,5.249,7.812
0.327,0.151,1.495,228.76,-17.334,5.371
0.318,0.13,1.421,228.882,-38.025,0.6709999999999999
0.319,0.161,1.383,229.37,-48.523,-2.8080000000000003
0.255,0.174,1.431,229.919,-49.193999999999996,-5.492999999999999
0.16,0.209,1.5,226.37900000000002,-41.565,-6.836
0.255,0.098,1.475,225.037,-39.001,-4.0280000000000005
0.354,0.079,1.395,224.609,-41.626000000000005,-6.5920000000000005
0.376,0.10099999999999999,1.35,232.97099999999998,-41.26,-18.494
0.361,0.068,1.214,246.27700000000002,-38.879,-34.119
0.28600000000000003,0.138,1.02,262.756,-27.831999999999997,-46.57
0.187,0.252,0.875,281.189,-7.874,-50.598
0.14800000000000002,0.155,0.693,281.311,9.399,-54.443000000000005
0.174,0.006,0.413,273.376,19.409000000000002,-59.998000000000005
0.128,-0.102,0.294,269.043,11.353,-64.453
0.037000000000000005,-0.17800000000000002,0.073,268.372,2.0140000000000002,-69.763
-0.037000000000000005,-0.26899999999999996,-0.175,267.27299999999997,-5.127000000000001,-71.35
-0.12,-0.368,-0.292,262.512,-16.602,-72.937
-0.158,-0.379,-0.486,255.615,-19.531,-77.82
-0.263,-0.192,-0.586,248.657,-17.151,-78.003
-0.414,-0.14,-0.597,241.21099999999998,-17.029,-70.251
-0.49,-0.184,-0.7659999999999999,229.065,-16.479,-65.979
-0.474,-0.182,-1.022,219.36,-23.56,-66.101
-0.56,-0.19,-1.14,214.783,-49.071999999999996,-63.049
-0.628,-0.21100000000000002,-1.213,204.468,-79.102,-56.885
-0.6559999999999999,-0.27,-1.341,190.18599999999998,-98.206,-47.119
-0.6509999999999999,-0.35700000000000004,-1.551,184.692,-101.74600000000001,-33.936
-0.6779999999999999,-0.38,-1.685,182.678,-87.83,-19.592
-0.731,-0.498,-1.8119999999999998,159.424,-59.50899999999999,-12.634
-0.625,-0.631,-1.8969999999999998,121.704,-35.705999999999996,-11.658
-0.5379999999999999,-0.659,-1.817,85.999,-32.349000000000004,-8.484
-0.524,-0.611,-1.655,54.443000000000005,-39.673,-4.822
-0.498,-0.596,-1.46,29.236,-46.265,-3.174
-0.45399999999999996,-0.614,-1.314,8.972000000000001,-51.696999999999996,-0.6709999999999999
-0.413,-0.662,-1.175,-8.057,-60.486000000000004,3.662
-0.36,-0.726,-1.0070000000000001,-22.461,-71.472,8.118
-0.36700000000000005,-0.7509999999999999,-0.8170000000000001,-33.508,-78.918,10.62
-0.327,-0.792,-0.723,-33.264,-72.632,11.78
-0.237,-0.8290000000000001,-0.7809999999999999,-28.87,-45.958999999999996,9.277000000000001
-0.156,-0.889,-0.905,-34.424,-17.7,2.075
-0.132,-0.914,-0.972,-47.974,-7.751,-4.883
-0.14400000000000002,-0.889,-0.95,-59.631,-9.399,-10.132
-0.153,-0.861,-0.985,-68.054,-5.859,-14.709000000000001
-0.153,-0.831,-1.026,-77.759,0.183,-18.799
-0.17300000000000001,-0.7709999999999999,-1.037,-91.492,5.188,-19.958
-0.198,-0.6970000000000001,-1.01,-107.178,9.521,-18.433
-0.205,-0.642,-0.978,-123.962,14.892999999999999,-16.602
-0.201,-0.61,-0.907,-141.66299999999998,19.531,-15.503
-0.20199999999999999,-0.564,-0.797,-157.715,24.78,-15.075999999999999
-0.23199999999999998,-0.483,-0.6629999999999999,-169.678,33.446999999999996,-15.747
-0.27,-0.441,-0.5720000000000001,-179.321,45.41,-16.479
-0.32299999999999995,-0.376,-0.488,-190.125,53.833,-15.503
-0.37,-0.32899999999999996,-0.37799999999999995,-201.66,54.199,-11.475
-0.33299999999999996,-0.297,-0.271,-213.44,51.27,-6.042000000000001
-0.318,-0.253,-0.111,-225.037,50.232,-5.31
-0.396,-0.276,-0.005,-232.239,54.382,-11.414000000000001
-0.369,-0.361,-0.016,-230.835,57.983000000000004,-15.015
-0.29,-0.381,0.008,-225.28099999999998,57.251000000000005,-15.075999999999999
-0.257,-0.233,0.005,-225.46400000000003,56.702,-18.921
-0.38299999999999995,-0.02,0.105,-229.553,51.88,-20.752
-0.47200000000000003,0.035,0.185,-233.27599999999998,42.053000000000004,-11.047
-0.441,0.057,0.294,-234.31400000000002,33.936,10.437000000000001
-0.326,0.05,0.445,-235.352,34.607,32.532
-0.209,0.158,0.551,-239.136,46.631,44.128
-0.22399999999999998,0.263,0.693,-241.455,58.35,45.349
-0.278,0.297,0.8540000000000001,-239.868,64.453,45.958999999999996
-0.317,0.317,0.968,-234.924,67.2,51.147
-0.326,0.38,1.206,-225.46400000000003,69.58,62.317
-0.195,0.39399999999999996,1.578,-220.093,74.524,79.22399999999999
0.084,0.34299999999999997,1.9509999999999998,-229.553,83.984,92.712
0.259,0.349,2.247,-242.798,93.20100000000001,94.666
0.217,0.33299999999999996,2.634,-239.99,92.834,91.125
0.315,0.138,2.843,-224.609,81.78699999999999,88.01299999999999
0.557,-0.045,2.7939999999999996,-200.86700000000002,61.278999999999996,86.243
0.68,-0.185,2.655,-164.185,33.264,74.097
0.7759999999999999,-0.243,2.4219999999999997,-118.40799999999999,13.55,55.663999999999994
0.7879999999999999,-0.478,2.095,-73.85300000000001,-1.3430000000000002,33.936
0.8140000000000001,-0.7559999999999999,1.6230000000000002,-52.856,-15.198,10.498
0.365,-0.631,1.36,-53.406000000000006,-38.086,-16.907
0.327,-0.49200000000000005,0.948,-54.688,-61.157,-41.077
-0.191,-0.498,1.891,-47.119,-118.958,-50.842
-0.327,-0.262,1.4480000000000002,-39.734,-74.707,-28.32
-0.27,-0.27899999999999997,1.459,-37.537,-40.71,-26.916999999999998
-0.16,-0.301,1.149,-33.936,-18.372,-28.503
-0.132,-0.355,0.9520000000000001,-40.955,-17.944000000000003,-23.315
-0.151,-0.315,0.946,-45.836999999999996,-36.316,-17.334
-0.11699999999999999,-0.29,0.9209999999999999,-47.791000000000004,-45.288000000000004,-17.761
-0.08,-0.29,0.899,-45.715,-47.791000000000004,-18.738
-0.067,-0.23800000000000002,0.92,-41.809,-45.288000000000004,-15.503
-0.051,-0.20600000000000002,0.956,-37.415,-31.25,-12.755999999999998
-0.052000000000000005,-0.19899999999999998,0.998,-36.194,-8.85,-11.292
-0.059000000000000004,-0.205,1.01,-39.856,10.864,-7.446000000000001
-0.065,-0.242,1.053,-44.983000000000004,20.874000000000002,-4.5169999999999995
-0.096,-0.308,1.153,-46.57,26.366999999999997,-5.066
-0.031,-0.326,1.133,-48.34,33.080999999999996,-7.141
0.017,-0.262,0.914,-50.72,33.325,-15.442
-0.156,-0.435,1.249,-46.50899999999999,-0.9159999999999999,-26.611
-0.193,-0.466,1.436,-40.283,-16.602,-19.409000000000002
-0.147,-0.397,1.901,-28.809,-36.865,-30.823
-0.33299999999999996,-0.147,1.7930000000000001,-13.915999999999999,-44.556000000000004,-42.663999999999994
-0.364,-0.045,1.215,-11.963,-19.653,-32.043
-0.18,-0.134,0.737,-14.770999999999999,-2.563,-15.869000000000002
-0.168,-0.262,0.828,-11.841,-13.245,-7.507000000000001
-0.099,-0.213,0.8540000000000001,-8.789,-21.118000000000002,1.77
-0.05,-0.191,0.799,-6.775,-20.996,2.075
-0.078,-0.19699999999999998,0.74,-3.052,-18.433,-3.113
-0.128,-0.245,0.731,-4.0280000000000005,-14.343,-6.5920000000000005
-0.20199999999999999,-0.28300000000000003,0.975,-5.492999999999999,-11.107999999999999,-4.395
-0.163,-0.225,1.151,-5.31,-4.272,1.2819999999999998
-0.13,-0.19699999999999998,1.204,-5.981,-0.6709999999999999,0.244
-0.12,-0.20800000000000002,1.099,-5.371,1.2819999999999998,-5.188
-0.146,-0.166,0.938,-3.845,0.366,-8.057
-0.363,-0.264,-2.1069999999999998,155.884,-175.78099999999998,-54.81
-0.442,-0.266,-2.285,144.165,-193.115,-51.818999999999996
-0.578,-0.322,-2.322,127.625,-182.8,-41.626000000000005
-0.708,-0.48700000000000004,-2.186,95.52,-147.278,-24.901999999999997
-0.6920000000000001,-0.561,-2.028,53.284,-95.459,-2.441
-0.575,-0.537,-1.784,15.198,-44.128,18.433
-0.499,-0.57,-1.4780000000000002,-12.145999999999999,-6.104,33.141999999999996
-0.44799999999999995,-0.675,-1.197,-33.691,24.963,40.649
-0.386,-0.763,-0.9540000000000001,-50.293,53.65,43.518
-0.32799999999999996,-0.8140000000000001,-0.75,-60.73,76.294,43.64
-0.26899999999999996,-0.866,-0.612,-66.77199999999999,88.62299999999999,41.504
-0.2,-0.909,-0.528,-68.298,89.78299999999999,38.025
-0.14400000000000002,-0.909,-0.474,-66.711,83.191,32.775999999999996
-0.124,-0.899,-0.478,-62.5,72.51,25.635
-0.10400000000000001,-0.883,-0.547,-54.688,62.43899999999999,18.005
-0.084,-0.851,-0.6579999999999999,-48.523,54.81,9.399
-0.075,-0.826,-0.765,-48.95,45.715,0.7929999999999999
-0.094,-0.7809999999999999,-0.835,-54.993,34.729,-5.981
-0.136,-0.688,-0.847,-63.903999999999996,26.978,-11.658
-0.17300000000000001,-0.628,-0.865,-76.782,23.56,-16.052
-0.203,-0.5870000000000001,-0.8590000000000001,-94.48200000000001,19.287,-16.907
-0.218,-0.55,-0.795,-112.305,15.075999999999999,-13.123
-0.191,-0.528,-0.7170000000000001,-129.27200000000002,16.785,-8.606
-0.166,-0.508,-0.634,-144.958,24.840999999999998,-7.874
-0.166,-0.489,-0.5479999999999999,-155.273,34.851,-11.353
-0.214,-0.42,-0.44799999999999995,-161.194,44.983000000000004,-16.296
-0.271,-0.42700000000000005,-0.379,-166.50400000000002,53.894,-21.179000000000002
-0.284,-0.47100000000000003,-0.34,-174.31599999999997,59.082,-24.658
-0.276,-0.514,-0.282,-182.312,58.838,-28.809
-0.256,-0.534,-0.22,-188.049,59.021,-35.95
-0.292,-0.414,-0.138,-190.796,63.354,-46.50899999999999
-0.418,-0.22,-0.065,-190.002,68.237,-52.917
-0.509,-0.128,-0.059000000000000004,-193.604,64.209,-49.622
-0.608,-0.052000000000000005,0.027999999999999997,-204.468,48.645,-35.034
-0.643,-0.085,0.141,-216.98,31.311,-14.465
-0.5539999999999999,-0.172,0.193,-226.31799999999998,18.677,5.371
-0.434,-0.25,0.251,-229.00400000000002,14.587,17.517
-0.326,-0.311,0.307,-226.74599999999998,20.63,19.714000000000002
-0.262,-0.368,0.39,-218.933,36.438,17.578
-0.191,-0.402,0.45299999999999996,-210.083,63.538000000000004,11.23
-0.124,-0.384,0.48100000000000004,-202.332,97.16799999999999,1.2209999999999999
-0.107,-0.28800000000000003,0.518,-192.56599999999997,128.296,-13.367
-0.349,-0.024,0.691,-184.387,147.095,-25.33
-0.597,0.385,1.082,-195.862,147.827,-12.878
-0.45,0.708,1.496,-232.3,130.127,27.771
-0.397,0.49,1.655,-259.52099999999996,93.01799999999999,67.87100000000001
-0.223,-0.028999999999999998,1.7819999999999998,-267.212,50.232,95.27600000000001
0.03,-0.265,1.895,-268.982,11.107999999999999,118.164
0.175,-0.40299999999999997,1.9380000000000002,-254.7,-6.287000000000001,113.77
0.204,-0.48100000000000004,2.0,-217.468,-1.587,86.73100000000001
0.244,-0.5579999999999999,1.92,-176.88,14.404000000000002,49.622
0.22899999999999998,-0.619,1.756,-146.72899999999998,29.053,15.015
0.19899999999999998,-0.598,1.642,-120.605,40.344,-5.553999999999999
0.145,-0.573,1.589,-96.25200000000001,60.486000000000004,-17.578
0.122,-0.514,1.514,-78.796,95.398,-24.230999999999998
0.092,-0.32299999999999995,1.5319999999999998,-73.85300000000001,133.118,-22.826999999999998
0.054000000000000006,-0.124,1.524,-83.801,154.358,-12.939
0.078,-0.044000000000000004,1.626,-100.586,150.024,0.9159999999999999
0.14300000000000002,-0.142,1.6019999999999999,-112.54899999999999,125.427,8.545
0.289,-0.255,1.6640000000000001,-112.488,87.524,7.202000000000001
0.231,-0.493,1.262,-104.553,53.589,-10.315
-0.027999999999999997,-0.623,1.636,-92.59,-25.146,-24.353
-0.158,-0.418,1.5330000000000001,-67.26100000000001,-70.251,-19.104
-0.198,-0.37200000000000005,1.365,-39.49,-88.074,-21.545
-0.212,-0.348,1.068,-18.555,-97.595,-28.503
-0.276,-0.263,0.9359999999999999,-6.836,-110.71799999999999,-28.991999999999997
-0.35100000000000003,-0.168,0.897,2.625,-108.64299999999999,-22.826999999999998
-0.317,-0.172,0.768,7.507000000000001,-85.449,-10.985999999999999
-0.27399999999999997,-0.19399999999999998,0.736,9.583,-51.818999999999996,3.7230000000000003
-0.188,-0.239,0.71,4.333,-13.123,17.822
-0.098,-0.3,0.73,-13.672,20.264,25.574
-0.019,-0.326,0.816,-35.461,41.748000000000005,27.344
0.013000000000000001,-0.324,0.9129999999999999,-48.645,50.964,25.513
0.003,-0.355,0.982,-51.636,49.255,16.907
-0.03,-0.363,1.013,-49.376999999999995,42.663999999999994,6.836
-0.06,-0.35200000000000004,0.929,-44.556000000000004,33.875,-2.502
-0.618,-1.035,2.106,-34.119,-1.465,-7.507000000000001
-0.024,-0.342,3.2119999999999997,-9.949,-30.945,17.944000000000003
0.179,0.256,1.896,-26.366999999999997,-38.025,12.512
-0.07400000000000001,-0.076,0.8340000000000001,-16.418,-43.213,-26.489
-0.07200000000000001,-0.363,0.34299999999999997,15.991,-36.681999999999995,-33.325
-0.312,-0.45399999999999996,0.486,23.436999999999998,-33.02,-25.208000000000002
-0.133,-0.19899999999999998,0.408,1.709,-7.69,-9.583
-0.046,-0.14300000000000002,0.397,-13.732999999999999,2.197,0.122
-0.204,-0.374,0.809,-16.174,5.371,-1.831
-0.198,-0.414,1.327,-21.666999999999998,5.066,2.197
-0.07400000000000001,-0.133,1.544,-33.751999999999995,-5.859,8.362
-0.084,-0.095,1.271,-26.978,-14.709000000000001,1.038
-0.125,-0.247,0.976,-2.991,-15.137,-9.216000000000001
-0.10800000000000001,-0.317,0.706,6.531000000000001,-4.761,-11.475
-0.14300000000000002,-0.29600000000000004,0.722,4.211,-3.235,-7.69
-0.17800000000000002,-0.252,0.892,0.183,-4.272,-3.54
-0.18,-0.221,1.022,-0.183,-3.967,-0.8540000000000001
-0.191,-0.22,1.074,0.977,-6.531000000000001,-1.099
-0.19,-0.221,1.006,2.136,-5.615,-2.258
-0.19,-0.235,0.92,2.197,-1.465,-3.662
-0.20600000000000002,-0.249,0.8759999999999999,0.977,2.6860000000000004,-3.967
-0.21600000000000003,-0.256,0.894,0.366,4.0280000000000005,-2.136
-0.214,-0.256,0.9359999999999999,-1.3430000000000002,2.075,-0.244
-0.205,-0.268,0.9520000000000001,-2.93,-3.174,0.42700000000000005
-0.19699999999999998,-0.271,0.9520000000000001,-2.625,-10.62,0.122
-0.214,-0.27,0.9309999999999999,-1.892,-12.878,-1.3430000000000002
-0.237,-0.253,0.9329999999999999,-1.2819999999999998,-9.766,-2.258
-0.256,-0.23199999999999998,0.941,-0.5489999999999999,-3.6010000000000004,-1.953
-0.249,-0.23600000000000002,0.945,-0.061,0.977,-0.5489999999999999
-0.23,-0.247,0.9540000000000001,-0.183,3.4789999999999996,1.526
-0.201,-0.262,0.9440000000000001,0.0,3.235,2.502
-0.182,-0.272,0.9420000000000001,0.732,1.099,2.38
-0.174,-0.271,0.9420000000000001,1.099,-0.6709999999999999,2.0140000000000002
-0.162,-0.273,0.943,1.465,-2.258,1.892
-0.146,-0.266,0.935,1.526,-3.3569999999999998,1.6480000000000001
-0.14800000000000002,-0.267,0.94,0.9159999999999999,-4.761,0.6709999999999999
-0.155,-0.259,0.955,-0.366,-6.165,-0.122
-0.161,-0.254,0.9470000000000001,0.122,-3.906,-0.732
-0.182,-0.25,0.9329999999999999,0.9159999999999999,-0.8540000000000001,-1.77
-0.195,-0.243,0.9329999999999999,-0.6709999999999999,0.244,-2.747
-0.213,-0.23199999999999998,0.934,-3.113,-0.9159999999999999,-2.8689999999999998
-0.215,-0.23600000000000002,0.946,-2.8080000000000003,-3.3569999999999998,-2.197
-0.21,-0.231,0.941,-1.3430000000000002,-4.638999999999999,-1.099
0.156,-0.305,2.224,78.125,67.627,60.242
0.23800000000000002,-0.312,2.256,93.445,75.256,48.218
0.293,-0.27899999999999997,2.285,109.863,73.303,31.982
0.33299999999999996,-0.253,2.168,123.10799999999999,66.895,13.184000000000001
0.239,-0.161,2.23,138.977,45.776,-1.709
0.253,-0.12300000000000001,2.1,157.715,20.203,-9.583
0.26899999999999996,-0.055,1.943,177.795,-1.892,-13.184000000000001
0.24,0.013000000000000001,1.811,195.862,-10.559000000000001,-20.203
0.243,0.017,1.605,213.86700000000002,-11.597000000000001,-29.419
0.263,0.07400000000000001,1.29,223.81599999999997,-10.315,-39.063
0.21600000000000003,0.0,1.242,232.422,-18.555,-42.236000000000004
0.23600000000000002,-0.03,1.246,229.858,-27.588,-36.56
0.214,0.027999999999999997,1.162,215.576,-25.818,-35.766999999999996
0.18100000000000002,-0.017,1.186,212.952,-21.057,-37.476
0.182,-0.025,1.196,218.38400000000001,-22.949,-36.56
0.22,-0.004,1.163,224.731,-25.756999999999998,-36.621
0.256,0.048,1.045,235.59599999999998,-29.541,-42.175
0.198,-0.022000000000000002,1.003,252.68599999999998,-37.415,-48.278999999999996
0.255,-0.099,0.731,259.155,-43.03,-50.293
0.221,-0.154,0.682,253.845,-52.795,-55.176
0.134,-0.168,0.64,242.065,-61.157,-63.843
0.035,-0.109,0.622,233.27599999999998,-66.528,-70.801
0.003,-0.087,0.529,233.94799999999998,-71.655,-72.632
-0.049,-0.099,0.4,237.36599999999999,-76.477,-73.73
-0.133,-0.083,0.315,240.845,-77.454,-74.34100000000001
-0.14800000000000002,-0.153,0.18899999999999997,242.92,-73.914,-72.266
-0.21100000000000002,-0.26,-0.015,237.915,-70.557,-69.458
-0.27699999999999997,-0.3,-0.136,235.107,-63.721000000000004,-67.017
-0.282,-0.307,-0.257,232.483,-49.438,-64.88
-0.311,-0.3,-0.379,222.9,-37.292,-62.012
-0.363,-0.293,-0.503,218.50599999999997,-26.123,-56.335
-0.37799999999999995,-0.289,-0.601,219.91,-13.610999999999999,-51.88
-0.364,-0.28600000000000003,-0.736,217.407,-4.638999999999999,-53.162
-0.41,-0.295,-0.96,206.787,-6.409,-57.8
-0.534,-0.335,-1.122,198.364,-18.188,-59.082
-0.581,-0.313,-1.298,187.74400000000003,-33.02,-56.152
-0.688,-0.299,-1.4380000000000002,166.077,-50.232,-54.931999999999995
-0.6970000000000001,-0.218,-1.7169999999999999,145.752,-72.571,-53.467
-0.713,-0.11800000000000001,-2.001,127.38,-109.375,-51.758
-0.8370000000000001,-0.109,-2.122,110.535,-153.99200000000002,-48.34
-0.9009999999999999,-0.18,-2.1719999999999997,96.191,-184.082,-40.222
-0.872,-0.247,-2.198,77.69800000000001,-182.06799999999998,-30.029
-0.903,-0.40299999999999997,-2.0780000000000003,50.72,-151.062,-21.118000000000002
-0.8640000000000001,-0.568,-1.865,15.869000000000002,-99.304,-7.935
-0.743,-0.596,-1.584,-19.287,-37.598,12.695
-0.5720000000000001,-0.546,-1.3159999999999998,-44.25,19.226,33.325
-0.445,-0.622,-1.071,-60.181000000000004,59.265,44.18899999999999
-0.317,-0.718,-0.9259999999999999,-75.317,83.191,48.096000000000004
-0.223,-0.784,-0.8029999999999999,-88.44,87.708,47.424
-0.152,-0.818,-0.7090000000000001,-94.29899999999999,76.477,43.273999999999994
-0.125,-0.8320000000000001,-0.674,-95.64200000000001,59.387,34.546
-0.11800000000000001,-0.836,-0.6509999999999999,-95.88600000000001,42.603,21.729
-0.124,-0.794,-0.672,-100.037,27.405,8.24
-0.154,-0.7709999999999999,-0.685,-108.27600000000001,9.705,-4.395
-0.195,-0.738,-0.65,-115.906,-7.08,-15.198
-0.23600000000000002,-0.705,-0.59,-121.03299999999999,-12.878,-23.865
-0.254,-0.569,-0.556,-125.61,-3.662,-29.846
-0.27699999999999997,-0.43799999999999994,-0.5660000000000001,-130.31,12.085,-31.128
-0.33899999999999997,-0.37,-0.515,-135.74200000000002,21.605999999999998,-26.123
-0.344,-0.36700000000000005,-0.48700000000000004,-147.339,30.273000000000003,-15.808
-0.313,-0.40299999999999997,-0.457,-163.391,37.109,-7.263
-0.303,-0.435,-0.32899999999999996,-176.94099999999997,40.527,-4.456
-0.28600000000000003,-0.45799999999999996,-0.228,-188.11,44.739,-8.911
-0.278,-0.478,-0.149,-195.06799999999998,49.133,-18.555
-0.28600000000000003,-0.489,-0.069,-195.55700000000002,54.626000000000005,-30.212
-0.28600000000000003,-0.37,-0.018000000000000002,-193.90900000000002,65.43,-40.527
-0.314,-0.28300000000000003,0.068,-190.735,76.233,-45.898
-0.358,-0.187,0.17800000000000002,-186.584,87.646,-44.067
-0.45899999999999996,-0.032,0.306,-180.66400000000002,103.57700000000001,-32.288000000000004
-0.516,0.175,0.491,-175.96400000000003,115.723,-6.104
-0.483,0.10099999999999999,0.496,-181.274,123.23,27.526999999999997
-0.361,-0.1,0.511,-201.843,108.09299999999999,61.096000000000004
-0.267,-0.218,0.6459999999999999,-231.201,76.538,80.505
-0.207,-0.257,0.875,-249.512,50.842,81.36
-0.163,-0.327,1.045,-246.21599999999998,41.016000000000005,68.115
-0.17,-0.38299999999999995,1.179,-225.64700000000002,47.974,48.828
-0.155,-0.354,1.23,-190.918,78.796,33.63
-0.12300000000000001,-0.36200000000000004,1.1520000000000001,-153.259,123.962,26.855
-0.08,-0.295,1.054,-130.798,158.02,28.748
-0.13,0.02,1.165,-126.831,167.96900000000002,37.598
-0.165,0.255,1.319,-135.925,152.283,65.186
-0.003,-0.001,1.3769999999999998,-156.921,118.164,90.637
0.136,-0.185,1.4880000000000002,-181.15200000000002,74.707,104.736
0.233,-0.32799999999999996,1.619,-196.96,37.17,102.72200000000001
0.272,-0.479,1.8030000000000002,-198.24200000000002,13.062000000000001,83.984
0.27399999999999997,-0.504,1.8430000000000002,-176.453,4.5169999999999995,57.495
0.287,-0.547,1.815,-139.893,7.202000000000001,30.456999999999997
0.318,-0.591,1.6280000000000001,-102.72200000000001,21.24,6.226
0.298,-0.601,1.561,-81.482,38.452,-11.536
0.223,-0.436,1.46,-73.669,62.5,-19.287
0.10400000000000001,-0.317,1.4609999999999999,-75.623,81.848,-17.151
0.193,-0.243,1.568,-84.71700000000001,88.196,-9.216000000000001
0.10400000000000001,-0.063,1.082,-97.351,108.154,-15.747
0.163,-0.45899999999999996,1.208,-114.441,48.828,-21.729
-0.083,-0.344,1.703,-111.87700000000001,2.319,-1.892
-0.037000000000000005,-0.364,1.71,-102.6,6.042000000000001,-2.0140000000000002
0.013999999999999999,-0.603,1.564,-84.656,26.428,-13.245
0.022000000000000002,-0.512,0.8290000000000001,-65.43,41.443000000000005,-12.755999999999998
0.154,-0.584,0.626,-55.968999999999994,-2.6860000000000004,-6.836
0.155,-0.441,0.7240000000000001,-53.528,-60.303000000000004,-6.287000000000001
-0.009000000000000001,-0.33899999999999997,0.9620000000000001,-53.589,-94.54299999999999,-17.7
-0.16,-0.205,1.195,-45.044,-89.294,-17.273
-0.18100000000000002,-0.084,1.189,-34.851,-45.898,-3.784
-0.081,-0.213,1.071,-32.654,-3.54,7.141
0.051,-0.295,1.008,-36.071999999999996,16.968,19.897000000000002
0.11699999999999999,-0.354,0.9890000000000001,-45.653999999999996,18.127,23.315
0.08199999999999999,-0.406,1.159,-55.968999999999994,2.6860000000000004,15.808
-0.006,-0.565,1.234,-62.195,-9.277000000000001,6.957999999999999
0.141,-0.386,1.781,-85.083,-56.213,-1.038
0.096,-0.11599999999999999,2.463,-101.929,-124.512,-12.267999999999999
-0.15,-0.23399999999999999,2.075,-64.63600000000001,-113.281,-31.677
-0.196,-0.2,1.136,10.559000000000001,-46.50899999999999,-31.616
-0.257,-0.263,0.6659999999999999,47.363,-10.864,-19.043
-0.12,-0.27399999999999997,0.429,48.828,16.907,-1.038
-0.012,-0.205,0.268,25.94,26.000999999999998,9.949
-0.06,-0.233,0.49200000000000005,-6.775,5.005,4.211
-0.114,-0.16699999999999998,0.8859999999999999,-31.86,-19.897000000000002,-5.432
-0.11900000000000001,-0.198,1.111,-44.373000000000005,-32.043,-13.610999999999999
-0.156,-0.3,1.21,-45.836999999999996,-31.982,-21.118000000000002
0.315,-0.301,1.992,121.46,54.748999999999995,20.142
0.342,-0.258,1.983,134.94899999999998,45.288000000000004,9.46
0.326,-0.20800000000000002,1.931,147.52200000000002,33.813,-2.136
0.314,-0.171,1.875,161.316,23.499000000000002,-12.207
0.258,-0.099,1.8019999999999998,174.377,14.282,-19.836
0.253,-0.065,1.6880000000000002,183.59400000000002,9.766,-26.000999999999998
0.244,-0.099,1.633,188.477,-2.258,-27.649
0.263,-0.111,1.5390000000000001,191.345,-13.489,-28.87
0.273,-0.052000000000000005,1.514,199.829,-15.747,-31.921
0.266,-0.036000000000000004,1.453,209.595,-9.949,-35.705999999999996
0.258,-0.079,1.328,212.646,-5.797999999999999,-39.49
0.259,-0.09300000000000001,1.136,207.642,-9.277000000000001,-43.762
0.18899999999999997,-0.062,1.031,203.796,-24.353,-46.875
0.141,-0.042,0.997,208.37400000000002,-42.968999999999994,-44.495
0.152,-0.079,0.878,213.68400000000003,-54.81,-39.001
0.184,-0.078,0.752,214.6,-62.13399999999999,-36.681999999999995
0.21100000000000002,-0.138,0.6970000000000001,210.69299999999998,-69.763,-35.828
0.18,-0.165,0.638,200.25599999999997,-73.059,-37.903
0.09300000000000001,-0.161,0.648,197.51,-68.90899999999999,-42.725
0.078,-0.239,0.615,201.294,-61.646,-43.518
0.051,-0.231,0.49700000000000005,202.75900000000001,-55.725,-45.532
-0.022000000000000002,-0.221,0.46,207.39700000000002,-54.321000000000005,-48.95
-0.025,-0.307,0.345,209.229,-57.19,-47.607
-0.038,-0.324,0.212,201.111,-62.012,-48.218
-0.11599999999999999,-0.365,0.266,193.481,-63.843,-48.888999999999996
-0.109,-0.467,0.182,187.012,-58.593999999999994,-46.81399999999999
-0.16699999999999998,-0.5660000000000001,0.146,176.75799999999998,-55.908,-46.143
-0.19699999999999998,-0.706,0.191,167.175,-52.001999999999995,-44.556000000000004
-0.19,-0.746,0.18899999999999997,158.63,-41.321000000000005,-46.326
-0.17300000000000001,-0.742,0.217,157.776,-29.785,-48.706
-0.146,-0.754,0.159,162.59799999999998,-23.131999999999998,-52.185
-0.128,-0.6920000000000001,-0.006,170.532,-21.301,-60.608000000000004
-0.19899999999999998,-0.5589999999999999,-0.018000000000000002,181.15200000000002,-18.738,-72.693
-0.282,-0.373,-0.114,194.824,-11.047,-78.857
-0.375,-0.37799999999999995,-0.31,194.702,-7.385,-82.458
-0.46,-0.44,-0.515,187.43900000000002,-13.672,-84.839
-0.523,-0.354,-0.71,181.458,-25.513,-82.88600000000001
-0.608,-0.332,-0.861,174.438,-39.795,-81.421
-0.703,-0.256,-1.153,175.842,-47.302,-77.881
-0.7240000000000001,-0.213,-1.526,184.44799999999998,-48.035,-68.237
-0.588,-0.023,-1.7930000000000001,181.58,-46.143,-47.24100000000001
-0.9259999999999999,0.013000000000000001,-2.217,171.204,-34.607,-12.817
-1.278,0.098,-2.408,139.465,-36.194,14.648
-1.632,-0.11199999999999999,-2.165,80.566,-52.185,13.855
-1.402,-0.39899999999999997,-1.83,14.954,-51.208,7.263
-1.057,-0.501,-1.6780000000000002,-34.668,-29.48,21.179000000000002
-0.851,-0.5760000000000001,-1.3119999999999998,-68.298,-13.855,41.382
-0.695,-0.716,-0.894,-93.323,-1.892,50.354
-0.531,-0.777,-0.664,-108.82600000000001,14.404000000000002,57.739
-0.376,-0.868,-0.502,-107.361,22.461,64.02600000000001
-0.23399999999999999,-0.919,-0.325,-99.54799999999999,23.865,63.477
-0.128,-0.912,-0.226,-96.985,21.666999999999998,56.091
-0.08199999999999999,-0.877,-0.19699999999999998,-95.70299999999999,13.489,45.288000000000004
-0.091,-0.8420000000000001,-0.168,-90.881,0.122,34.119
-0.159,-0.843,-0.165,-85.999,-12.512,23.621
-0.23600000000000002,-0.8290000000000001,-0.21899999999999997,-83.801,-23.499000000000002,15.442
-0.309,-0.7979999999999999,-0.266,-81.97,-33.203,11.353
-0.35700000000000004,-0.7659999999999999,-0.32,-83.069,-41.626000000000005,10.742
-0.379,-0.764,-0.381,-90.33200000000001,-48.523,12.085
-0.373,-0.7509999999999999,-0.37799999999999995,-99.67,-53.223,13.55
-0.361,-0.733,-0.326,-111.633,-52.001999999999995,12.573
-0.325,-0.733,-0.29600000000000004,-123.84,-43.091,8.545
-0.318,-0.68,-0.21899999999999997,-132.32399999999998,-29.541,2.991
-0.34600000000000003,-0.618,-0.11699999999999999,-134.94899999999998,-14.099,-0.732
-0.331,-0.65,-0.138,-135.864,1.16,-1.6480000000000001
-0.315,-0.613,-0.114,-137.634,9.827,-1.892
-0.37200000000000005,-0.536,-0.037000000000000005,-140.442,11.963,-2.991
-0.44,-0.529,-0.003,-140.381,11.597000000000001,-2.502
-0.45399999999999996,-0.5329999999999999,0.021,-138.79399999999998,9.094,1.2819999999999998
-0.439,-0.5479999999999999,0.045,-142.761,5.797999999999999,5.249
-0.4,-0.568,0.067,-152.649,3.845,5.005
-0.371,-0.5710000000000001,0.083,-164.185,3.113,1.2209999999999999
-0.359,-0.563,0.11,-172.485,2.319,-5.31
-0.355,-0.537,0.172,-175.232,1.2819999999999998,-13.794
-0.37200000000000005,-0.484,0.243,-175.293,2.0140000000000002,-21.301
-0.444,-0.276,0.382,-171.81400000000002,4.883,-21.362
-0.526,-0.20199999999999999,0.45299999999999996,-165.34400000000002,13.427999999999999,-11.841
-0.456,-0.207,0.488,-164.185,21.301,4.883
-0.385,-0.2,0.555,-172.852,21.973000000000003,24.840999999999998
-0.325,-0.255,0.624,-184.57,16.968,39.429
-0.266,-0.315,0.691,-193.298,12.024000000000001,46.143
-0.262,-0.348,0.753,-194.153,5.249,46.021
-0.26899999999999996,-0.396,0.7859999999999999,-186.27900000000002,2.258,41.077
-0.272,-0.442,0.785,-175.049,5.859,34.79
-0.23600000000000002,-0.439,0.7809999999999999,-167.48,15.93,30.212
-0.19899999999999998,-0.413,0.828,-164.795,32.349000000000004,30.761999999999997
-0.113,-0.33399999999999996,0.872,-167.419,52.001999999999995,35.217
-0.095,-0.012,0.948,-167.48,68.115,43.518
-0.198,0.162,1.252,-155.029,70.679,59.875
-0.071,0.161,1.518,-152.039,76.355,84.656
0.091,0.028999999999999998,1.6340000000000001,-167.908,90.82,99.304
0.235,-0.16899999999999998,1.714,-185.425,99.426,97.961
0.365,-0.45899999999999996,1.786,-191.58900000000003,90.454,82.581
0.371,-0.6409999999999999,1.916,-183.899,65.247,59.387
0.29,-0.659,1.964,-168.09099999999998,36.376999999999995,33.02
0.276,-0.635,1.857,-146.545,14.220999999999998,6.5920000000000005
0.13699999999999998,-0.588,1.713,-126.52600000000001,3.906,-9.033
0.032,-0.5529999999999999,1.528,-109.92399999999999,7.263,-13.672
-0.004,-0.465,1.3330000000000002,-104.553,23.131999999999998,-12.329
0.166,-0.452,1.2329999999999999,-108.887,49.622,-12.573
-0.11599999999999999,-0.41,1.005,-120.728,97.16799999999999,-15.32
0.212,-0.488,0.551,-141.113,103.821,-11.353
0.063,-0.19699999999999998,0.723,-150.269,75.317,19.531
0.055999999999999994,0.013000000000000001,1.001,-155.457,56.519,18.311
0.111,-0.085,1.315,-147.278,57.922,7.385
0.040999999999999995,0.021,1.3559999999999999,-150.085,62.988,15.442
-0.015,0.21,1.317,-148.254,64.331,20.935
0.092,0.17800000000000002,1.082,-136.23,52.611999999999995,13.184000000000001
0.102,0.19,0.9670000000000001,-114.685,2.441,15.747
0.032,0.21600000000000003,1.031,-82.09200000000001,-50.598,22.095
-0.05,0.106,1.148,-54.382,-86.365,16.602
-0.131,-0.102,1.206,-38.33,-87.09700000000001,5.737
-0.322,-0.237,1.238,-37.231,-72.14399999999999,0.9159999999999999
0.631,-0.594,2.387,26.794,-121.82600000000001,3.845
-0.049,0.266,2.929,88.318,-223.511,-1.16
-0.56,-0.342,2.314,18.677,-151.97799999999998,-33.141999999999996
-0.064,-0.071,1.067,-66.65,37.109,-40.527
0.03,0.155,0.285,-72.388,105.95700000000001,-19.165
0.078,0.12,0.302,-33.02,76.782,-14.220999999999998
0.12300000000000001,-0.284,2.339,171.143,58.838,-41.138000000000005
0.256,-0.19,2.427,186.157,62.5,-20.081
0.374,-0.17,2.2319999999999998,183.655,66.101,-18.738
0.52,-0.299,1.85,187.25599999999997,48.766999999999996,-25.574
0.484,-0.315,1.9080000000000001,208.37400000000002,-0.061,-20.508000000000003
0.40700000000000003,-0.285,1.9069999999999998,221.00799999999998,-42.847,-14.954
0.325,-0.23800000000000002,1.8619999999999999,230.28599999999997,-66.04,-14.709000000000001
0.26,-0.083,1.673,236.206,-66.65,-23.193
0.18899999999999997,0.061,1.5490000000000002,251.953,-66.528,-28.259
0.17600000000000002,0.071,1.443,275.452,-78.491,-23.375999999999998
0.151,-0.011000000000000001,1.2590000000000001,287.659,-82.09200000000001,-18.433
0.129,-0.057999999999999996,1.08,289.124,-81.238,-18.005
0.135,-0.166,0.958,283.936,-77.02600000000001,-21.179000000000002
0.151,-0.17,0.805,269.592,-69.39699999999999,-28.564
0.128,-0.10400000000000001,0.8690000000000001,261.108,-66.528,-33.325
0.158,-0.067,0.7859999999999999,260.803,-55.176,-34.912
0.175,-0.033,0.7040000000000001,262.634,-40.588,-37.72
0.184,-0.14,0.593,260.559,-39.49,-38.147
0.157,-0.27399999999999997,0.532,247.986,-50.293,-39.856
0.067,-0.26,0.514,233.093,-56.152,-47.24100000000001
0.024,-0.228,0.531,232.727,-55.176,-54.931999999999995
0.023,-0.239,0.428,240.967,-48.157,-60.608000000000004
0.004,-0.223,0.345,248.47400000000002,-39.49,-67.627
-0.027000000000000003,-0.261,0.265,251.892,-34.119,-70.984
-0.126,-0.355,0.07,244.995,-31.189,-68.726
-0.272,-0.512,-0.015,230.408,-32.349000000000004,-65.67399999999999
-0.312,-0.637,-0.028999999999999998,214.172,-31.86,-62.683
-0.264,-0.628,-0.002,201.172,-20.02,-60.425
-0.252,-0.626,-0.083,193.726,-5.92,-62.195
-0.24600000000000002,-0.615,-0.17300000000000001,189.392,-4.638999999999999,-66.77199999999999
-0.275,-0.517,-0.196,185.669,-10.315,-75.195
-0.297,-0.386,-0.29,184.692,-14.709000000000001,-84.77799999999999
-0.35100000000000003,-0.287,-0.473,186.157,-22.461,-93.506
-0.449,-0.259,-0.613,187.25599999999997,-37.781,-98.999
-0.507,-0.213,-0.73,184.81400000000002,-49.071999999999996,-98.083
-0.544,-0.171,-0.9620000000000001,179.50400000000002,-52.428999999999995,-95.337
-0.565,-0.16399999999999998,-1.222,172.668,-63.293,-91.736
-0.5589999999999999,-0.12300000000000001,-1.4769999999999999,167.48,-75.684,-85.93799999999999
-0.512,-0.09699999999999999,-1.7069999999999999,171.326,-82.947,-77.637
-0.701,-0.092,-1.892,166.077,-79.041,-59.143
-0.687,0.16699999999999998,-2.161,145.02,-76.782,-38.33
-0.691,0.42200000000000004,-2.305,103.63799999999999,-87.036,-30.823
-0.9570000000000001,0.17600000000000002,-2.177,55.176,-106.384,-40.161
-1.008,-0.212,-1.7990000000000002,8.179,-119.20200000000001,-47.913000000000004
-0.9079999999999999,-0.375,-1.535,-36.133,-102.417,-29.48
-0.721,-0.35,-1.298,-69.092,-68.97,-6.531000000000001
-0.623,-0.44,-1.119,-88.257,-39.611999999999995,4.5169999999999995
-0.5579999999999999,-0.57,-0.9690000000000001,-95.52,-18.921,8.24
-0.49700000000000005,-0.6890000000000001,-0.821,-91.919,-1.526,11.536
-0.426,-0.726,-0.782,-88.01299999999999,18.372,13.855
-0.374,-0.758,-0.759,-89.539,31.494,13.367
-0.326,-0.74,-0.723,-95.64200000000001,35.705999999999996,11.536
-0.297,-0.718,-0.6809999999999999,-106.445,30.396,9.155
-0.299,-0.693,-0.634,-117.676,17.883,5.127000000000001
-0.33,-0.6559999999999999,-0.5870000000000001,-122.49799999999999,6.042000000000001,1.099
-0.35600000000000004,-0.598,-0.565,-121.704,3.4789999999999996,-2.075
-0.368,-0.555,-0.5820000000000001,-123.10799999999999,7.568,-4.456
-0.355,-0.518,-0.569,-130.43200000000002,12.755999999999998,-5.127000000000001
-0.348,-0.5,-0.541,-143.066,16.235,-5.797999999999999
-0.341,-0.507,-0.48200000000000004,-157.349,18.066,-8.728
-0.32299999999999995,-0.519,-0.41100000000000003,-171.50900000000001,19.348,-13.610999999999999
-0.31,-0.542,-0.36700000000000005,-181.763,21.912,-20.569000000000003
-0.314,-0.509,-0.247,-185.24200000000002,26.671999999999997,-29.114
-0.349,-0.365,-0.155,-182.007,38.635,-34.851
-0.39799999999999996,-0.297,-0.091,-172.24099999999999,50.232,-33.508
-0.451,-0.27,-0.024,-165.649,60.059,-25.756999999999998
-0.495,-0.235,0.008,-166.80900000000003,72.571,-12.329
-0.503,-0.261,0.062,-173.523,82.70299999999999,3.2960000000000003
-0.47200000000000003,-0.29600000000000004,0.12300000000000001,-184.57,88.62299999999999,18.982
-0.433,-0.32799999999999996,0.212,-195.312,91.919,30.396
-0.374,-0.377,0.284,-202.08700000000002,96.008,34.729
-0.306,-0.41600000000000004,0.33399999999999996,-205.322,102.478,32.532
-0.282,-0.43,0.42200000000000004,-204.52900000000002,110.10700000000001,24.475
-0.265,-0.42,0.495,-197.632,121.21600000000001,15.564
-0.28,-0.423,0.531,-187.805,130.981,10.254000000000001
-0.295,-0.332,0.579,-179.993,134.27700000000002,13.184000000000001
-0.321,-0.258,0.597,-173.157,136.475,22.705
-0.313,-0.08900000000000001,0.852,-171.021,134.583,39.306999999999995
-0.29,0.109,1.012,-177.917,126.77,60.242
-0.284,0.094,1.123,-186.707,113.89200000000001,83.31299999999999
-0.217,-0.05,1.294,-193.787,102.72200000000001,104.37
-0.106,-0.19899999999999998,1.3969999999999998,-203.36900000000003,94.36,117.615
-0.026000000000000002,-0.319,1.5630000000000002,-206.97,89.661,119.87299999999999
0.08,-0.48700000000000004,1.725,-200.928,90.759,115.11200000000001
0.16,-0.643,1.76,-189.94099999999997,97.656,101.257
0.24,-0.7829999999999999,1.6769999999999998,-176.636,107.361,74.524
0.316,-0.8270000000000001,1.568,-171.44799999999998,112.061,39.063
0.303,-0.82,1.463,-180.176,111.26700000000001,8.728
0.242,-0.937,1.229,-191.71099999999998,101.56299999999999,7.263
0.069,-0.925,1.4580000000000002,-199.40200000000002,76.721,44.18899999999999
-0.10300000000000001,-0.726,1.57,-231.812,74.95100000000001,97.9
-0.033,-0.39299999999999996,1.605,-276.001,101.01299999999999,145.325
0.083,-0.134,1.632,-295.593,126.709,178.101
0.125,0.11,1.7530000000000001,-286.133,141.66299999999998,193.115
0.382,0.376,1.094,-259.827,157.227,178.162
0.617,0.152,1.054,-209.045,104.98,147.94899999999998
0.24100000000000002,0.27699999999999997,1.159,-153.19799999999998,49.316,134.94899999999998
0.249,0.075,1.446,-130.371,16.113,104.37
0.313,0.14800000000000002,1.3769999999999998,-133.179,11.047,91.064
0.281,0.149,1.187,-134.583,13.184000000000001,88.135
0.322,0.078,1.162,-117.249,0.305,77.69800000000001
0.315,0.165,1.079,-88.501,-8.728,72.14399999999999
0.345,0.21,0.917,-73.792,-22.034000000000002,54.81
0.314,0.203,0.995,-50.598,-36.621,39.49
0.235,0.11699999999999999,1.124,-38.208,-32.898,22.095
0.273,0.131,1.298,-31.311,-9.277000000000001,5.981
0.278,0.166,1.253,-25.756999999999998,21.973000000000003,-8.789
0.33,0.09300000000000001,1.1909999999999998,-13.367,41.016000000000005,-23.01
0.349,0.024,0.976,1.587,51.331,-36.681999999999995
0.327,0.054000000000000006,0.519,13.977,42.114,-45.958999999999996
0.251,0.12300000000000001,0.565,33.813,-12.267999999999999,-44.861000000000004
0.139,0.17600000000000002,0.888,50.781000000000006,-85.083,-40.405
-0.005,0.145,0.965,52.063,-124.756,-41.321000000000005
-0.17800000000000002,-0.098,1.079,53.162,-147.278,-43.518
-0.21,-0.138,1.237,50.293,-148.68200000000002,-33.997
-0.20199999999999999,-0.115,1.475,46.265,-123.962,-22.644000000000002
-0.33799999999999997,-0.33799999999999997,1.381,42.542,-78.67399999999999,-20.63
-0.24600000000000002,-0.015,1.46,13.732999999999999,-23.436999999999998,-13.977
-0.079,-0.21,1.1059999999999999,-3.845,34.851,-18.982
-0.8390000000000001,-0.47600000000000003,-1.9580000000000002,62.073,-93.689,-48.157
-0.9009999999999999,-0.524,-1.8659999999999999,23.254,-135.681,-36.194
-0.938,-0.544,-1.784,-9.094,-157.166,-17.09
-0.948,-0.645,-1.725,-23.621,-146.118,-0.061
-0.9059999999999999,-0.7559999999999999,-1.6019999999999999,-34.119,-105.164,10.681
-0.8079999999999999,-0.757,-1.411,-49.744,-45.776,18.127
-0.703,-0.7120000000000001,-1.131,-63.17100000000001,9.094,24.353
-0.564,-0.688,-0.9059999999999999,-72.571,50.17100000000001,30.456999999999997
-0.457,-0.779,-0.695,-81.543,74.036,35.217
-0.305,-0.825,-0.539,-91.492,81.78699999999999,39.917
-0.205,-0.81,-0.402,-100.76899999999999,71.35,40.771
-0.168,-0.836,-0.298,-106.384,49.683,35.217
-0.134,-0.813,-0.264,-107.788,29.968000000000004,26.794
-0.16,-0.789,-0.278,-108.82600000000001,15.137,17.212
-0.23800000000000002,-0.765,-0.29,-108.948,3.113,9.033
-0.276,-0.727,-0.33,-109.55799999999999,-1.831,4.272
-0.312,-0.7140000000000001,-0.359,-111.572,0.977,0.305
-0.314,-0.693,-0.389,-116.333,11.719000000000001,-3.113
-0.284,-0.69,-0.406,-126.77,26.733,-6.104
-0.242,-0.708,-0.38799999999999996,-139.465,37.415,-8.057
-0.185,-0.701,-0.33299999999999996,-151.489,44.556000000000004,-9.094
-0.162,-0.618,-0.256,-162.659,48.888999999999996,-11.536
-0.18,-0.503,-0.162,-169.8,50.17100000000001,-12.939
-0.193,-0.414,-0.027000000000000003,-173.035,47.852,-13.367
-0.21600000000000003,-0.365,0.055999999999999994,-177.49,46.387,-16.052
-0.265,-0.228,0.124,-179.016,45.898,-19.348
-0.41700000000000004,-0.128,0.312,-172.668,43.091,-15.686
-0.44799999999999995,-0.136,0.406,-171.692,47.852,-7.446000000000001
-0.428,-0.159,0.441,-177.795,56.213,4.883
-0.371,-0.17,0.483,-184.50900000000001,56.273999999999994,17.883
-0.301,-0.258,0.574,-191.162,48.828,25.574
-0.209,-0.377,0.598,-200.195,44.067,26.428
-0.11800000000000001,-0.457,0.643,-207.275,39.734,21.057
-0.051,-0.532,0.6990000000000001,-209.412,36.316,9.216000000000001
0.022000000000000002,-0.542,0.687,-208.06900000000002,35.828,-6.47
0.022000000000000002,-0.42200000000000004,0.7,-199.158,33.446999999999996,-21.851
-0.141,-0.23399999999999999,0.7929999999999999,-180.42,19.653,-26.733
-0.289,-0.08800000000000001,0.965,-162.048,-1.587,-20.142
-0.336,0.008,1.1059999999999999,-152.039,-12.939,-11.169
-0.452,0.054000000000000006,1.2670000000000001,-148.804,-8.606,-0.977
-0.488,0.021,1.318,-147.217,6.104,10.742
-0.395,-0.079,1.208,-151.36700000000002,28.381,16.541
-0.313,-0.196,1.125,-154.114,42.663999999999994,17.517
-0.251,-0.28,1.075,-150.208,44.922,13.0
-0.212,-0.401,1.087,-145.08100000000002,46.875,2.991
-0.154,-0.386,1.048,-142.822,53.162,-7.202000000000001
-0.081,-0.298,1.0290000000000001,-136.719,57.434,-14.16
-0.013999999999999999,-0.2,1.19,-120.178,57.373000000000005,-14.16
0.01,0.085,1.3359999999999999,-105.286,62.073,-9.033
-0.27399999999999997,0.24600000000000002,1.598,-88.684,58.167,3.235
-0.45899999999999996,0.24600000000000002,1.999,-70.923,40.649,29.601999999999997
-0.36,0.171,2.168,-71.71600000000001,40.894,61.218
-0.15,-0.021,2.094,-89.78299999999999,58.288999999999994,80.933
0.092,-0.226,1.8619999999999999,-106.87299999999999,62.86600000000001,80.566
0.205,-0.419,1.7630000000000001,-109.92399999999999,35.034,66.223
0.19699999999999998,-0.491,1.7080000000000002,-99.915,-7.629,47.607
-0.038,-0.436,1.771,-84.77799999999999,-46.631,26.671999999999997
0.212,-0.39,1.011,-70.374,-63.965,2.502
0.018000000000000002,-0.465,1.3159999999999998,-52.001999999999995,-124.084,-12.39
-0.222,-0.268,1.212,-33.080999999999996,-122.009,-3.7230000000000003
-0.149,-0.24100000000000002,1.018,-27.221999999999998,-90.21,-9.521
-0.091,-0.251,0.853,-21.118000000000002,-49.744,-16.541
-0.132,-0.166,0.77,-18.677,-16.052,-9.521
-0.203,0.012,0.763,-23.070999999999998,8.728,2.136
-0.203,0.09699999999999999,0.831,-31.555,25.818,6.5920000000000005
-0.207,0.049,0.9390000000000001,-41.26,34.241,10.985999999999999
-0.192,-0.02,1.078,-51.575,39.734,15.686
-0.182,-0.125,1.202,-59.998000000000005,50.72,10.985999999999999
-0.8079999999999999,-0.664,3.022,-45.349,65.186,6.47
-0.231,-0.10099999999999999,3.286,6.226,148.19299999999998,8.24
0.469,0.086,1.2890000000000001,-12.512,215.69799999999998,-3.235
0.203,0.006999999999999999,0.966,-12.817,100.586,-16.602
0.127,-0.5710000000000001,0.789,35.522,12.755999999999998,-42.847
0.036000000000000004,-0.439,0.42200000000000004,62.805,-1.77,-21.179000000000002
0.017,-0.055999999999999994,0.17300000000000001,31.555,-12.329,-0.61
-0.038,-0.217,0.475,10.254000000000001,-43.518,-17.456
-0.15,-0.285,0.628,3.235,-38.33,-20.447
-0.293,-0.196,0.79,-6.7139999999999995,-17.273,-5.066
-0.271,-0.21,1.045,-10.315,-1.2819999999999998,2.747
-0.244,-0.18600000000000003,1.405,-7.812,1.709,4.272
-0.249,-0.20199999999999999,1.5419999999999998,-1.2209999999999999,9.155,-2.075
-0.155,-0.163,1.189,-2.625,27.160999999999998,-8.606
-0.152,-0.175,0.8540000000000001,-3.54,23.315,-13.610999999999999
-0.171,-0.185,0.7340000000000001,1.709,1.953,-12.207
-0.17,-0.226,0.727,3.235,-15.32,-8.972000000000001
-0.193,-0.23800000000000002,0.879,3.2960000000000003,-25.208000000000002,-2.563
-0.184,-0.214,0.993,1.465,-21.973000000000003,2.136
-0.16699999999999998,-0.214,1.037,-0.7929999999999999,-14.648,2.258
-0.175,-0.198,1.023,-1.2819999999999998,-7.507000000000001,2.38
-0.15,-0.18899999999999997,0.99,-3.4789999999999996,-1.892,1.6480000000000001
-0.121,-0.195,0.948,-6.897,0.9159999999999999,-0.183
-0.10400000000000001,-0.193,0.934,-9.766,-0.8540000000000001,-1.038
-0.121,-0.18899999999999997,0.951,-8.911,-5.31,-0.8540000000000001
-0.13699999999999998,-0.198,0.9670000000000001,-6.287000000000001,-10.376,-0.305
-0.139,-0.228,0.963,-3.967,-14.16,0.244
-0.122,-0.222,0.951,-2.563,-15.015,1.4040000000000001
-0.138,-0.193,0.961,-2.502,-12.878,1.6480000000000001
-0.157,-0.17,0.9840000000000001,-2.075,-7.935,1.2209999999999999
-0.156,-0.17,0.991,-1.2209999999999999,-1.831,0.42700000000000005
-0.13699999999999998,-0.177,0.978,-0.122,3.2960000000000003,-0.305
-0.126,-0.184,0.965,0.8540000000000001,4.944,-1.16
-0.132,-0.17,0.946,1.587,2.991,-1.953
-0.156,-0.17,0.95,1.6480000000000001,-1.038,-2.197
-0.162,-0.166,0.948,0.732,-4.5169999999999995,-1.587
-0.168,-0.157,0.955,-0.61,-7.202000000000001,-0.42700000000000005
-0.174,-0.16899999999999998,0.9670000000000001,-0.732,-7.568,0.488
-0.166,-0.184,0.966,-1.2209999999999999,-5.553999999999999,0.244
-0.16699999999999998,-0.18600000000000003,0.968,-1.709,-3.54,-0.61
-0.18,-0.19,0.96,-1.038,-2.0140000000000002,-1.16
-0.177,-0.201,0.927,-1.2819999999999998,-0.6709999999999999,-1.099
-0.172,-0.19399999999999998,0.9279999999999999,-2.0140000000000002,-0.9159999999999999,-0.366
-0.16699999999999998,-0.201,0.9590000000000001,-1.526,-2.38,0.366
-0.155,-0.19899999999999998,0.97,-0.488,-2.502,0.6709999999999999
-0.153,-0.187,0.966,0.0,-2.6860000000000004,0.6709999999999999
-0.159,-0.18,0.976,0.305,-3.967,0.42700000000000005
-0.165,-0.18100000000000002,0.976,-0.122,-5.066,0.122
-0.161,-0.174,0.9690000000000001,-0.6709999999999999,-4.7,0.5489999999999999
-0.151,-0.18100000000000002,0.963,-1.16,-4.0889999999999995,0.61
-0.14300000000000002,-0.191,0.958,-1.2819999999999998,-3.662,0.183
0.177,-0.309,2.3680000000000003,49.193999999999996,72.449,47.302
0.239,-0.275,2.419,64.209,50.964,34.729
0.252,-0.18,2.4530000000000003,88.135,26.916999999999998,26.000999999999998
0.221,-0.091,2.435,117.859,6.287000000000001,23.193
0.263,-0.023,2.242,143.372,-3.662,22.888
0.31,0.11199999999999999,1.9880000000000002,163.696,-12.695,17.456
0.218,0.158,1.915,183.77700000000002,-28.991999999999997,11.414000000000001
0.207,0.19399999999999998,1.7830000000000001,194.153,-41.992,11.719000000000001
0.233,0.24,1.6569999999999998,197.388,-50.11,13.977
0.21600000000000003,0.348,1.629,204.041,-57.251000000000005,15.564
0.185,0.309,1.661,215.088,-62.744,16.235
0.231,0.151,1.589,220.52,-60.913000000000004,12.573
0.308,0.099,1.402,217.407,-51.513999999999996,3.967
0.325,0.10099999999999999,1.327,218.567,-51.453,-6.042000000000001
0.302,0.015,1.246,220.032,-60.791000000000004,-14.954
0.32799999999999996,-0.013000000000000001,1.1179999999999999,220.032,-68.97,-21.666999999999998
0.262,0.121,1.061,229.065,-72.815,-26.916999999999998
0.184,0.156,0.92,246.338,-72.876,-30.09
0.147,0.055999999999999994,0.7609999999999999,256.836,-72.266,-27.465999999999998
0.109,-0.138,0.599,254.08900000000003,-66.223,-28.076
0.037000000000000005,-0.275,0.414,242.92,-61.278999999999996,-33.446999999999996
-0.048,-0.391,0.386,239.929,-65.735,-33.997
-0.065,-0.511,0.314,238.403,-66.101,-29.724
-0.071,-0.586,0.129,234.43599999999998,-57.617,-29.175
-0.11,-0.5820000000000001,0.025,238.77,-48.645,-29.601999999999997
-0.08900000000000001,-0.457,-0.092,243.713,-32.166,-29.114
-0.009000000000000001,-0.354,-0.336,238.342,-13.610999999999999,-32.166
-0.021,-0.36,-0.511,226.50099999999998,-14.709000000000001,-40.344
-0.127,-0.251,-0.5820000000000001,217.773,-25.269000000000002,-45.532
-0.321,-0.14300000000000002,-0.59,213.37900000000002,-29.601999999999997,-47.54600000000001
-0.452,-0.18100000000000002,-0.768,205.44400000000002,-24.230999999999998,-49.927
-0.485,-0.23199999999999998,-0.924,191.22299999999998,-17.639,-48.157
-0.529,-0.287,-1.02,173.09599999999998,-15.625,-40.283
-0.5429999999999999,-0.342,-1.141,149.658,-18.372,-34.241
-0.519,-0.387,-1.235,133.179,-28.930999999999997,-30.761999999999997
-0.499,-0.408,-1.37,122.131,-43.762,-27.465999999999998
-0.455,-0.37,-1.6580000000000001,106.56700000000001,-60.486000000000004,-27.954
-0.562,-0.287,-1.922,97.16799999999999,-80.322,-29.358
-0.773,-0.423,-2.0869999999999997,88.501,-92.834,-35.339
-0.883,-0.514,-2.215,67.749,-79.529,-33.203
-0.915,-0.546,-2.114,34.119,-53.711000000000006,-22.278000000000002
-0.8240000000000001,-0.631,-1.86,-3.174,-25.391,-8.24
-0.693,-0.679,-1.5519999999999998,-33.264,2.625,5.797999999999999
-0.588,-0.722,-1.271,-55.603,25.208000000000002,15.015
-0.531,-0.772,-1.0,-73.181,36.681999999999995,19.043
-0.475,-0.815,-0.7829999999999999,-83.557,41.138000000000005,23.987
-0.379,-0.847,-0.638,-90.33200000000001,41.382,29.175
-0.28800000000000003,-0.89,-0.5429999999999999,-94.788,35.95,31.799
-0.221,-0.937,-0.47700000000000004,-98.694,26.611,30.518
-0.161,-0.97,-0.44,-100.34200000000001,18.005,25.391
-0.099,-0.9740000000000001,-0.43700000000000006,-101.074,13.672,17.212
-0.076,-0.895,-0.44799999999999995,-101.44,11.78,7.69
-0.10300000000000001,-0.767,-0.45399999999999996,-103.027,12.329,-1.2209999999999999
-0.157,-0.698,-0.45299999999999996,-106.934,15.991,-6.531000000000001
-0.13,-0.695,-0.475,-115.723,20.752,-7.507000000000001
-0.065,-0.753,-0.491,-130.981,21.179000000000002,-8.911
-0.006999999999999999,-0.765,-0.42200000000000004,-147.766,15.503,-15.075999999999999
0.022000000000000002,-0.7509999999999999,-0.332,-159.851,10.925,-28.198
0.036000000000000004,-0.586,-0.235,-165.222,14.526,-46.387
-0.073,-0.34600000000000003,-0.094,-163.94,26.305999999999997,-63.965
-0.248,-0.162,-0.001,-158.936,43.701,-75.684
-0.382,-0.131,0.008,-152.77100000000002,61.461999999999996,-74.585
-0.419,0.033,0.040999999999999995,-150.33,76.416,-61.646
-0.498,-0.066,0.129,-146.912,83.435,-43.273999999999994
-0.489,-0.139,0.168,-157.227,90.94200000000001,-22.095
-0.384,-0.235,0.226,-181.396,95.09299999999999,2.8689999999999998
-0.273,-0.4,0.32,-210.266,89.111,21.605999999999998
-0.17300000000000001,-0.491,0.42,-233.521,79.468,26.733
-0.126,-0.575,0.516,-243.10299999999998,70.374,15.991
-0.10099999999999999,-0.599,0.575,-237.61,66.406,-3.967
-0.039,-0.584,0.546,-223.69400000000002,69.885,-26.978
0.025,-0.365,0.505,-202.332,77.393,-41.931000000000004
0.009000000000000001,0.046,0.531,-169.61700000000002,86.426,-43.823
-0.18100000000000002,0.522,0.7509999999999999,-131.042,89.355,-30.579
-0.5479999999999999,0.899,1.2309999999999999,-110.046,77.57600000000001,0.61
-0.7440000000000001,0.8190000000000001,1.771,-127.50200000000001,76.782,41.87
-0.39799999999999996,0.41200000000000003,1.604,-200.68400000000003,88.074,74.89
0.04,0.222,1.499,-273.682,54.443000000000005,99.54799999999999
0.062,0.044000000000000004,1.902,-289.795,-19.287,108.459
0.075,-0.168,2.191,-264.221,-59.265,94.055
0.184,-0.293,2.292,-206.84799999999998,-39.246,69.824
0.354,-0.415,2.1319999999999997,-140.686,21.79,41.87
0.51,-0.483,1.7619999999999998,-93.14,84.839,14.648
0.51,-0.439,1.479,-66.345,116.02799999999999,-3.906
0.387,-0.23399999999999999,1.433,-53.162,120.42200000000001,-8.118
0.177,0.044000000000000004,1.605,-56.763000000000005,115.11200000000001,2.502
0.076,0.057999999999999996,1.745,-85.632,105.835,15.259
0.337,0.016,1.743,-122.681,78.064,26.855
0.092,-0.034,1.544,-136.719,33.325,24.840999999999998
-0.10099999999999999,-0.34,2.072,-122.009,-58.411,-1.16
-0.488,-0.361,2.141,-86.182,-97.29,-3.967
-0.43200000000000005,-0.217,1.899,-61.157,-93.93299999999999,2.38
-0.349,-0.192,1.421,-28.564,-78.186,1.6480000000000001
-0.313,-0.18899999999999997,1.173,-3.4789999999999996,-72.998,5.981
-0.257,-0.11599999999999999,0.985,9.399,-59.143,13.306
-0.151,-0.149,0.8590000000000001,8.118,-34.18,10.62
-0.019,-0.24,0.8270000000000001,-2.502,-7.874,4.5169999999999995
0.047,-0.294,0.852,-16.724,13.915999999999999,2.563
0.05,-0.242,0.995,-31.006,30.029,2.563
0.057999999999999996,-0.215,1.104,-42.968999999999994,52.428999999999995,-3.906
0.025,-0.21899999999999997,1.159,-48.035,70.923,-11.841
-0.006,-0.203,1.138,-45.105,80.2,-16.663
-0.009000000000000001,-0.16899999999999998,1.084,-40.527,83.49600000000001,-21.851
-0.033,-0.13699999999999998,1.0,-34.912,76.233,-25.33
-0.11900000000000001,-0.047,0.919,-32.227,64.941,-24.475
-0.114,-0.092,0.763,-37.598,44.006,-22.4
-0.147,-0.017,0.718,-39.856,0.9159999999999999,-10.62
-0.217,-0.13,0.9159999999999999,-40.466,-37.781,-10.62
-0.301,-0.226,1.083,-36.804,-48.583999999999996,-12.512
-0.41700000000000004,-0.5479999999999999,1.5090000000000001,-29.541,-37.17,-6.409
-0.048,-0.359,1.828,-8.545,-36.621,12.39
-0.05,-0.07400000000000001,1.817,0.977,-38.269,16.174
-0.107,-0.121,1.3459999999999999,-9.094,-12.634,1.099
-0.028999999999999998,-0.114,0.879,-16.663,26.611,-11.353
0.016,-0.063,0.7490000000000001,-4.761,28.015,-7.629
0.02,-0.05,0.691,3.174,11.169,-1.16
0.012,-0.153,0.7290000000000001,1.709,-0.061,-2.136
0.023,-0.193,0.768,-4.638999999999999,-0.732,-4.15
0.042,-0.21100000000000002,0.853,-8.118,-3.3569999999999998,-4.272
0.253,-0.257,2.3209999999999997,72.205,50.781000000000006,39.429
0.29100000000000004,-0.2,2.398,86.54799999999999,39.246,31.128
0.289,-0.159,2.363,103.027,29.48,20.508000000000003
0.35700000000000004,-0.07400000000000001,2.17,123.90100000000001,19.47,10.437000000000001
0.33899999999999997,-0.026000000000000002,2.03,153.381,0.488,4.211
0.27399999999999997,-0.04,1.92,177.063,-27.588,-4.0889999999999995
0.20199999999999999,0.087,1.768,194.275,-44.067,-12.755999999999998
0.126,0.068,1.639,214.6,-55.236999999999995,-17.395
0.10800000000000001,0.015,1.454,226.80700000000002,-62.56100000000001,-19.226
0.109,-0.013000000000000001,1.3090000000000002,231.68900000000002,-66.833,-21.423000000000002
0.08199999999999999,-0.055999999999999994,1.2819999999999998,231.93400000000003,-66.406,-23.865
0.073,-0.044000000000000004,1.189,223.511,-60.913000000000004,-24.475
0.076,-0.115,1.158,212.21900000000002,-59.387,-23.315
0.099,-0.045,1.148,205.017,-61.34,-19.409000000000002
0.09699999999999999,0.14800000000000002,1.158,210.144,-59.631,-17.395
0.12300000000000001,0.016,1.131,225.525,-53.04,-17.517
0.209,-0.19,0.99,226.50099999999998,-44.8,-20.02
0.267,-0.243,0.825,214.66099999999997,-43.152,-26.55
0.209,-0.107,0.8170000000000001,213.562,-51.575,-35.461
0.098,-0.039,0.807,221.43599999999998,-53.101000000000006,-42.48
0.042,0.031,0.733,227.295,-43.823,-42.725
0.05,-0.062,0.7040000000000001,231.079,-35.034,-36.56
0.13699999999999998,-0.252,0.64,222.168,-28.991999999999997,-32.775999999999996
0.18600000000000003,-0.293,0.555,206.17700000000002,-28.87,-40.955
0.068,-0.18,0.574,205.38299999999998,-38.696,-54.688
-0.02,-0.187,0.531,217.407,-50.659,-61.951
-0.063,-0.233,0.28,224.609,-51.758,-65.186
-0.11,-0.239,-0.021,229.187,-46.448,-67.81
-0.196,-0.257,-0.23800000000000002,228.699,-47.54600000000001,-70.313
-0.28300000000000003,-0.297,-0.428,220.33700000000002,-51.758,-69.092
-0.35,-0.325,-0.5770000000000001,208.06900000000002,-55.725,-64.575
-0.402,-0.307,-0.72,196.167,-58.96,-60.242
-0.47100000000000003,-0.306,-0.847,190.308,-59.326,-55.176
-0.53,-0.365,-1.0090000000000001,186.27900000000002,-54.81,-47.852
-0.536,-0.446,-1.206,174.805,-47.913000000000004,-44.18899999999999
-0.5489999999999999,-0.51,-1.36,157.654,-48.157,-43.762
-0.561,-0.524,-1.52,139.221,-58.228,-46.143
-0.596,-0.507,-1.653,121.46,-78.003,-49.86600000000001
-0.655,-0.469,-1.82,101.196,-106.445,-50.049
-0.711,-0.466,-1.933,73.36399999999999,-141.47899999999998,-45.593
-0.797,-0.414,-1.944,40.527,-174.805,-36.376999999999995
-0.85,-0.41700000000000004,-1.992,16.846,-181.58,-22.278000000000002
-0.83,-0.49200000000000005,-2.004,2.8080000000000003,-151.79399999999998,-9.094
-0.775,-0.6,-1.896,-16.357,-99.304,-0.6709999999999999
-0.6970000000000001,-0.649,-1.65,-41.748000000000005,-43.091,7.385
-0.583,-0.66,-1.355,-64.209,3.662,15.93
-0.47100000000000003,-0.716,-1.12,-77.69800000000001,37.415,21.362
-0.359,-0.755,-0.9309999999999999,-84.351,59.448,22.278000000000002
-0.275,-0.76,-0.7959999999999999,-90.39299999999999,69.031,19.348
-0.22699999999999998,-0.763,-0.7070000000000001,-96.92399999999999,62.317,15.625
-0.196,-0.76,-0.616,-102.72200000000001,44.922,11.658
-0.172,-0.7440000000000001,-0.5820000000000001,-106.87299999999999,30.518,5.553999999999999
-0.153,-0.7340000000000001,-0.586,-109.802,23.375999999999998,-2.502
-0.153,-0.6809999999999999,-0.604,-113.708,19.531,-11.414000000000001
-0.185,-0.672,-0.6409999999999999,-120.911,15.747,-18.799
-0.19399999999999998,-0.6559999999999999,-0.657,-131.47,13.184000000000001,-22.339000000000002
-0.184,-0.65,-0.635,-143.25,16.663,-25.269000000000002
-0.184,-0.5379999999999999,-0.574,-154.114,29.114,-30.701
-0.21100000000000002,-0.46,-0.52,-161.499,45.41,-35.522
-0.21899999999999997,-0.43200000000000005,-0.473,-168.64,58.838,-36.56
-0.20600000000000002,-0.426,-0.374,-176.392,67.566,-35.95
-0.179,-0.445,-0.282,-183.35,74.768,-38.391
-0.147,-0.408,-0.205,-186.157,81.97,-45.044
-0.174,-0.301,-0.128,-183.28900000000002,88.135,-53.406000000000006
-0.289,-0.11199999999999999,-0.047,-178.162,90.39299999999999,-58.472
-0.42200000000000004,0.049,0.035,-174.377,87.83,-53.467
-0.513,0.16399999999999998,0.11,-172.424,85.205,-36.010999999999996
-0.512,0.161,0.19,-177.185,83.008,-10.742
-0.414,0.051,0.248,-199.28,86.182,12.755999999999998
-0.19899999999999998,-0.02,0.382,-228.21,96.49700000000001,27.771
-0.036000000000000004,-0.132,0.5329999999999999,-251.77,110.046,26.978
-0.078,-0.16699999999999998,0.586,-264.099,121.58200000000001,10.802999999999999
-0.147,0.046,0.7559999999999999,-252.44099999999997,125.854,-1.2819999999999998
-0.218,0.299,1.031,-231.50599999999997,121.948,1.2819999999999998
-0.23800000000000002,0.5489999999999999,1.298,-217.773,120.3,14.343
-0.26,0.813,1.726,-194.946,117.126,36.681999999999995
-0.305,0.588,2.332,-172.852,112.12200000000001,61.707
-0.08199999999999999,0.226,2.392,-174.988,133.545,79.285
0.271,0.068,2.06,-186.89,151.733,84.351
0.354,0.022000000000000002,2.042,-184.81400000000002,109.375,76.111
0.278,-0.098,2.307,-165.833,39.001,65.55199999999999
0.255,-0.172,2.4530000000000003,-149.17,-1.892,54.504
0.305,-0.263,2.367,-129.27200000000002,-3.052,38.208
0.36700000000000005,-0.444,2.18,-99.243,9.46,20.569000000000003
0.40299999999999997,-0.612,1.8769999999999998,-75.256,29.053,3.6010000000000004
0.3,-0.667,1.679,-64.941,42.968999999999994,-14.099
-0.282,-0.522,1.835,-64.087,44.312,-33.508
0.303,-0.321,1.099,-66.28399999999999,57.861000000000004,-46.082
-0.261,-0.452,2.072,-62.43899999999999,-14.892999999999999,-39.063
-0.307,-0.102,2.063,-56.885,-4.822,-15.442
-0.0,0.188,2.138,-60.974,20.325,-22.888
-0.23800000000000002,-0.142,1.7280000000000002,-32.775999999999996,43.762,-56.519
-0.431,-0.27,1.429,-22.949,34.485,-57.678000000000004
-0.293,-0.14300000000000002,1.2429999999999999,-22.095,-2.502,-28.991999999999997
-0.183,-0.221,1.0759999999999998,-14.099,-38.879,-19.043
-0.196,-0.267,0.932,-3.845,-63.903999999999996,-14.832
-0.18,-0.273,0.8140000000000001,5.005,-72.327,-8.362
-0.111,-0.316,0.69,9.827,-55.908,-6.042000000000001
-0.069,-0.311,0.536,8.606,-30.029,-3.3569999999999998
-0.036000000000000004,-0.289,0.47100000000000003,1.587,-6.287000000000001,-5.432
-0.036000000000000004,-0.318,0.522,-9.46,10.681,-9.521
-0.037000000000000005,-0.325,0.562,-21.24,25.024,-11.353
-0.011000000000000001,-0.287,0.561,-30.884,34.668,-14.099
-0.019,-0.22399999999999998,0.627,-34.851,31.006,-18.311
-0.092,-0.182,0.6920000000000001,-36.926,19.653,-22.156
-0.171,-0.174,0.732,-40.1,6.409,-22.949
-0.23199999999999998,-0.166,0.765,-44.25,-4.638999999999999,-19.592
-0.28,-0.166,0.804,-46.753,-12.573,-14.404000000000002
-0.35100000000000003,-0.15,0.857,-49.133,-15.625,-10.681
-0.306,-0.172,0.7879999999999999,-53.467,-20.447,-11.107999999999999
-0.41600000000000004,-0.168,0.9420000000000001,-54.138000000000005,-38.269,-6.653
-0.45299999999999996,-0.11599999999999999,1.069,-55.481,-30.701,-1.892
-0.483,-0.11599999999999999,1.1420000000000001,-54.688,-1.038,-1.77
-0.893,-0.488,1.649,-49.988,32.898,4.5169999999999995
-0.391,-0.174,2.714,-25.879,32.775999999999996,33.813
0.012,0.22,2.5580000000000003,-2.197,35.583,39.063
0.042,0.039,1.614,3.235,36.621,8.911
0.055999999999999994,-0.27699999999999997,0.8909999999999999,6.042000000000001,21.179000000000002,-12.512
0.08800000000000001,-0.284,0.588,16.541,-6.836,-9.949
0.10800000000000001,-0.235,2.3080000000000003,94.116,47.485,41.748000000000005
0.157,-0.251,2.396,108.704,43.945,37.659
0.201,-0.214,2.385,119.751,37.048,33.875
0.255,-0.198,2.289,132.08,25.146,24.719
0.295,-0.162,2.165,148.92600000000002,6.165,12.39
0.28300000000000003,-0.133,2.089,170.28799999999998,-11.414000000000001,1.4040000000000001
0.243,0.008,1.931,189.94099999999997,-19.043,-5.31
0.21100000000000002,0.14800000000000002,1.778,207.703,-24.78,-11.23
0.205,0.138,1.6580000000000001,219.055,-41.199,-13.915999999999999
0.187,0.10800000000000001,1.52,219.11599999999999,-60.12,-14.220999999999998
0.19,0.062,1.391,219.482,-74.28,-13.55
0.18899999999999997,-0.025,1.314,224.304,-82.15299999999999,-14.526
0.222,-0.133,1.17,228.882,-74.89,-19.409000000000002
0.24,0.004,1.1440000000000001,230.713,-61.82899999999999,-24.353
0.21600000000000003,0.04,1.12,230.16400000000002,-52.917,-27.344
0.198,0.078,1.042,225.525,-49.744,-28.748
0.162,-0.012,1.0390000000000001,225.769,-57.495,-25.513
0.21899999999999997,-0.16,0.882,223.63299999999998,-67.993,-23.865
0.264,-0.162,0.7290000000000001,218.262,-77.454,-28.991999999999997
0.226,-0.085,0.718,218.872,-89.661,-37.72
0.11900000000000001,-0.002,0.6409999999999999,224.548,-89.844,-45.105
0.027000000000000003,0.08199999999999999,0.56,233.582,-79.712,-46.082
-0.009000000000000001,0.013000000000000001,0.488,241.394,-67.078,-41.26
0.02,-0.08199999999999999,0.272,236.938,-55.663999999999994,-39.611999999999995
-0.012,-0.151,0.198,223.511,-58.105,-43.396
-0.064,-0.18,0.14800000000000002,215.576,-67.505,-46.448
-0.16899999999999998,-0.20199999999999999,0.08199999999999999,212.158,-71.655,-50.049
-0.239,-0.242,-0.07200000000000001,216.37,-67.87100000000001,-52.979
-0.281,-0.295,-0.28,219.727,-62.744,-55.358999999999995
-0.344,-0.371,-0.401,215.454,-60.12,-57.068000000000005
-0.40299999999999997,-0.337,-0.5870000000000001,208.37400000000002,-56.824,-55.847
-0.467,-0.382,-0.72,200.623,-59.082,-54.138000000000005
-0.501,-0.39,-0.9520000000000001,194.885,-63.721000000000004,-52.063
-0.594,-0.341,-1.127,184.692,-67.139,-49.316
-0.723,-0.261,-1.349,172.18,-67.87100000000001,-44.739
-0.7929999999999999,-0.252,-1.6059999999999999,159.485,-71.472,-41.138000000000005
-0.821,-0.257,-1.847,145.203,-86.609,-39.734
-0.8,-0.28300000000000003,-2.135,127.50200000000001,-109.25299999999999,-35.828
-0.7290000000000001,-0.192,-2.263,101.868,-137.878,-30.029
-0.747,-0.11599999999999999,-2.407,62.988,-163.086,-24.719
-0.825,-0.254,-2.425,21.423000000000002,-178.77200000000002,-22.766
-0.9540000000000001,-0.37,-2.221,-14.343,-172.852,-16.724
-0.915,-0.493,-1.955,-47.852,-133.911,-4.0889999999999995
-0.774,-0.609,-1.656,-65.918,-72.998,11.536
-0.564,-0.696,-1.421,-70.984,-3.3569999999999998,25.146
-0.433,-0.758,-1.128,-81.665,50.781000000000006,29.906999999999996
-0.321,-0.79,-0.865,-93.079,86.426,29.724
-0.239,-0.813,-0.639,-101.074,104.919,28.381
-0.14300000000000002,-0.782,-0.501,-104.24799999999999,108.765,24.596999999999998
-0.16899999999999998,-0.778,-0.361,-105.774,97.53399999999999,16.968
-0.168,-0.755,-0.314,-104.492,80.2,11.475
-0.183,-0.727,-0.32799999999999996,-105.40799999999999,61.035,7.507000000000001
-0.20199999999999999,-0.708,-0.325,-109.92399999999999,41.565,2.747
-0.233,-0.682,-0.344,-115.35600000000001,26.305999999999997,-1.831
-0.23800000000000002,-0.644,-0.349,-119.08,16.724,-5.553999999999999
-0.24,-0.653,-0.36,-125.366,14.832,-11.169
-0.244,-0.6920000000000001,-0.359,-133.30100000000002,21.484,-18.616
-0.218,-0.708,-0.34,-139.709,33.080999999999996,-27.344
-0.20199999999999999,-0.73,-0.313,-142.822,48.278999999999996,-39.124
-0.187,-0.6970000000000001,-0.266,-144.287,67.2,-53.772
-0.192,-0.585,-0.192,-144.958,88.745,-68.115
-0.235,-0.34700000000000003,-0.086,-143.982,107.056,-77.087
-0.41700000000000004,-0.152,0.004,-140.015,117.676,-77.271
-0.5820000000000001,-0.057,0.044000000000000004,-140.503,118.042,-62.378
-0.657,0.051,0.10300000000000001,-152.71,111.084,-32.898
-0.693,0.046,0.255,-172.668,100.95200000000001,-0.305
-0.633,-0.096,0.382,-195.06799999999998,93.994,26.000999999999998
-0.499,-0.235,0.457,-207.703,91.98,41.626000000000005
-0.389,-0.391,0.56,-209.29,91.00299999999999,43.701
-0.293,-0.52,0.62,-204.16299999999998,95.27600000000001,35.583
-0.203,-0.616,0.6579999999999999,-195.37400000000002,104.553,20.813000000000002
-0.16899999999999998,-0.611,0.6709999999999999,-183.044,116.02799999999999,4.883
-0.204,-0.45799999999999996,0.6990000000000001,-165.283,125.061,-3.3569999999999998
-0.187,-0.256,0.725,-147.095,128.845,-3.845
-0.249,0.024,0.805,-128.357,125.854,2.6860000000000004
-0.364,0.23399999999999999,0.987,-107.91,113.647,26.916999999999998
-0.325,0.19899999999999998,1.197,-113.525,93.93299999999999,54.871
-0.196,0.063,1.35,-142.639,81.78699999999999,74.097
-0.10800000000000001,-0.064,1.508,-167.542,66.711,92.102
0.03,-0.22899999999999998,1.655,-185.364,37.903,96.375
0.129,-0.433,1.8359999999999999,-189.75799999999998,8.362,83.191
0.177,-0.5529999999999999,1.889,-176.14700000000002,-11.047,61.401
0.187,-0.58,1.795,-145.813,-18.372,37.598
0.183,-0.611,1.615,-107.666,-12.085,13.55
0.161,-0.6,1.416,-74.646,6.226,-6.836
0.126,-0.52,1.217,-47.791000000000004,34.485,-20.63
0.08900000000000001,-0.35100000000000003,1.024,-27.283,62.56100000000001,-29.785
0.008,-0.184,0.929,-16.663,83.069,-37.598
-0.09,0.021,0.9009999999999999,-13.610999999999999,96.191,-37.903
-0.201,0.171,0.9390000000000001,-14.282,94.971,-26.733
-0.265,0.066,1.094,-19.348,83.618,-9.277000000000001
-0.152,-0.162,1.188,-35.156,80.2,11.658
0.03,-0.237,1.127,-57.922,81.116,31.311
0.11599999999999999,-0.336,1.1159999999999999,-79.102,71.594,31.066999999999997
0.128,-0.5529999999999999,1.109,-89.111,50.537,18.005
0.131,-0.517,1.218,-89.6,24.353,11.841
0.177,-0.429,0.7290000000000001,-82.64200000000001,11.475,2.075
0.055,-0.5579999999999999,1.129,-75.928,-49.011,-17.883
-0.132,-0.504,1.401,-55.786,-57.251000000000005,-18.433
-0.10400000000000001,-0.331,1.2409999999999999,-51.758,-8.545,-20.203
-0.05,-0.231,1.063,-48.828,28.748,-29.358
-0.21100000000000002,-0.152,1.2930000000000001,-47.974,29.601999999999997,-24.17
-0.257,-0.015,1.1840000000000002,-60.364,28.259,-9.766
-0.968,-0.727,2.487,-69.458,2.075,5.615
-0.272,-1.003,3.793,-26.611,19.409000000000002,42.114
0.631,-0.13,2.4219999999999997,2.136,109.49700000000001,67.81
0.452,-0.091,1.5290000000000001,-2.93,104.065,35.828
0.465,-0.45799999999999996,0.8290000000000001,-22.705,54.81,-16.113
0.299,-0.6809999999999999,0.858,-2.38,-23.926,-32.593
0.293,-0.348,0.652,12.329,-57.495,-12.207
0.126,-0.255,0.521,3.6010000000000004,-76.904,-13.367
0.028999999999999998,-0.261,0.396,2.563,-88.928,-21.545
-0.047,-0.326,0.297,4.395,-88.135,-22.522
-0.11900000000000001,-0.342,0.281,0.183,-79.346,-16.113
-0.262,-0.281,0.495,-8.423,-59.875,-10.071
-0.368,-0.254,0.879,-13.184000000000001,-23.56,-9.644
-0.409,-0.278,1.214,-15.32,21.362,-8.789
-0.371,-0.24,1.295,-17.639,63.903999999999996,-2.8689999999999998
-0.259,-0.23800000000000002,1.357,-17.029,76.66,0.61
0.092,-0.359,2.355,70.19,44.495,53.406000000000006
0.153,-0.384,2.443,88.074,52.123999999999995,50.964
0.262,-0.408,2.414,104.98,56.641000000000005,44.434
0.381,-0.414,2.295,121.155,50.598,32.654
0.41100000000000003,-0.441,2.116,132.507,30.396,15.686
0.39299999999999996,-0.342,1.9980000000000002,141.296,-2.075,-0.366
0.297,-0.12300000000000001,1.996,152.222,-37.903,-8.545
0.21899999999999997,-0.091,1.942,160.278,-67.322,-11.047
0.226,-0.099,1.758,162.964,-82.70299999999999,-11.107999999999999
0.243,0.024,1.607,173.34,-89.17200000000001,-11.475
0.23800000000000002,0.105,1.571,195.25099999999998,-88.501,-12.024000000000001
0.251,0.040999999999999995,1.4480000000000002,209.229,-78.67399999999999,-11.963
0.297,-0.023,1.285,209.778,-63.11,-12.267999999999999
0.364,0.01,1.228,206.84799999999998,-52.306999999999995,-14.343
0.373,-0.057,1.202,201.233,-48.035,-18.372
0.374,-0.092,1.071,195.435,-48.157,-25.024
0.32899999999999996,-0.092,0.971,202.576,-55.542,-32.715
0.284,-0.067,0.795,220.581,-62.13399999999999,-41.138000000000005
0.262,0.08199999999999999,0.599,237.183,-63.049,-48.706
0.168,0.033,0.569,242.615,-67.505,-54.871
0.11900000000000001,-0.111,0.392,231.567,-61.157,-60.852
0.085,-0.175,0.27699999999999997,216.003,-50.537,-65.979
0.02,-0.149,0.21600000000000003,206.36,-42.847,-71.045
-0.055999999999999994,-0.078,0.182,203.49099999999999,-38.635,-75.07300000000001
-0.127,-0.094,0.12,204.34599999999998,-35.461,-74.585
-0.19399999999999998,-0.08199999999999999,0.028999999999999998,200.80599999999998,-31.128,-72.449
-0.28300000000000003,-0.135,-0.07400000000000001,198.364,-28.32,-68.42
-0.29,-0.19399999999999998,-0.196,195.19,-26.794,-64.148
-0.272,-0.252,-0.243,188.171,-25.879,-65.857
-0.344,-0.305,-0.315,180.054,-24.840999999999998,-70.12899999999999
-0.43200000000000005,-0.292,-0.455,176.025,-22.888,-72.388
-0.5379999999999999,-0.322,-0.526,175.232,-26.123,-73.36399999999999
-0.615,-0.314,-0.6609999999999999,171.021,-26.366999999999997,-73.425
-0.703,-0.292,-0.774,165.71,-26.855,-69.763
-0.7759999999999999,-0.382,-1.0090000000000001,158.264,-30.212,-66.528
-0.826,-0.439,-1.215,145.50799999999998,-39.978,-62.073
-0.915,-0.46299999999999997,-1.3459999999999999,126.221,-56.091,-59.448
-1.0290000000000001,-0.397,-1.48,106.62799999999999,-72.388,-55.786
-1.15,-0.298,-1.587,88.44,-91.736,-49.5
-1.242,-0.264,-1.645,68.298,-113.89200000000001,-38.696
-1.308,-0.25,-1.653,39.185,-133.118,-19.409000000000002
-1.29,-0.387,-1.59,4.883,-148.865,1.2209999999999999
-1.188,-0.519,-1.4469999999999998,-18.005,-146.97299999999998,22.826999999999998
-1.041,-0.627,-1.2770000000000001,-25.269000000000002,-114.075,39.246
-0.858,-0.71,-1.1340000000000001,-25.695999999999998,-56.885,45.715
-0.669,-0.782,-1.028,-27.71,3.2960000000000003,45.958999999999996
-0.49700000000000005,-0.866,-0.895,-37.842,44.067,44.739
-0.368,-0.9109999999999999,-0.6859999999999999,-54.748999999999995,63.66,42.053000000000004
-0.259,-0.91,-0.496,-71.289,70.618,37.72
-0.174,-0.91,-0.405,-79.773,67.322,31.311
-0.155,-0.9079999999999999,-0.37,-81.055,52.673,23.01
-0.163,-0.9079999999999999,-0.419,-79.163,33.569,14.404000000000002
-0.21,-0.8759999999999999,-0.47100000000000003,-80.994,13.184000000000001,6.653
-0.285,-0.8290000000000001,-0.504,-87.34100000000001,-4.944,0.061
-0.34700000000000003,-0.764,-0.531,-93.93299999999999,-18.127,-3.7230000000000003
-0.41100000000000003,-0.698,-0.547,-98.694,-23.315,-7.202000000000001
-0.43799999999999994,-0.6559999999999999,-0.5760000000000001,-103.63799999999999,-20.691,-9.521
-0.42,-0.623,-0.598,-110.10700000000001,-15.015,-9.949
-0.39,-0.638,-0.5760000000000001,-119.995,-9.583,-12.573
-0.34700000000000003,-0.645,-0.5429999999999999,-132.935,-3.418,-18.188
-0.301,-0.63,-0.478,-145.691,2.625,-26.55
-0.231,-0.615,-0.433,-153.748,9.399,-37.109
-0.162,-0.615,-0.38299999999999995,-157.715,18.372,-50.232
-0.091,-0.583,-0.365,-159.058,30.456999999999997,-64.575
-0.07,-0.49,-0.33,-160.70600000000002,41.443000000000005,-77.271
-0.087,-0.331,-0.252,-156.738,48.461999999999996,-84.53399999999999
-0.01,-0.287,-0.08800000000000001,-147.94899999999998,55.481,-78.491
0.038,-0.284,0.066,-141.602,70.862,-37.109
-0.359,0.142,0.131,-132.263,97.77799999999999,44.556000000000004
-0.7170000000000001,0.335,0.051,-128.418,120.117,101.196
-0.8390000000000001,0.425,0.016,-149.048,123.71799999999999,96.436
-0.5479999999999999,0.212,0.154,-181.15200000000002,112.671,57.068000000000005
-0.38299999999999995,0.075,0.36200000000000004,-213.013,90.637,41.87
-0.386,0.08900000000000001,0.6779999999999999,-235.59599999999998,70.251,55.603
-0.32799999999999996,0.002,0.9670000000000001,-236.877,74.768,62.256
-0.179,-0.11800000000000001,1.1059999999999999,-228.882,106.75,58.777
0.019,-0.25,1.124,-223.69400000000002,145.386,45.898
0.07,-0.193,1.095,-220.33700000000002,164.917,29.236
-0.031,0.133,1.247,-207.581,145.02,25.085
-0.156,0.33,1.5959999999999999,-185.91299999999998,86.609,41.809
-0.14400000000000002,0.275,1.89,-183.59400000000002,24.109,57.556000000000004
-0.091,0.21899999999999997,2.064,-192.627,-8.667,70.068
-0.053,0.141,2.089,-197.449,-14.526,80.75
0.09,-0.012,1.973,-195.19,-11.169,81.29899999999999
0.198,-0.21,1.85,-185.669,-7.812,69.824
0.21100000000000002,-0.297,1.8259999999999998,-164.612,-1.77,51.88
0.17300000000000001,-0.36,1.8559999999999999,-137.207,15.808,28.625
0.11599999999999999,-0.45,1.851,-114.38,47.485,3.418
0.079,-0.483,1.784,-96.49700000000001,82.581,-16.418
0.040999999999999995,-0.39799999999999996,1.659,-82.52,113.037,-28.686999999999998
0.031,-0.387,1.556,-74.158,126.038,-36.56
-0.025,-0.22899999999999998,1.5319999999999998,-73.547,124.512,-37.72
-0.38799999999999996,0.035,1.71,-75.5,109.68,-33.569
-0.009000000000000001,-0.057,0.902,-80.566,68.48100000000001,-36.010999999999996
-0.317,-0.183,1.695,-77.637,-33.936,-20.996
-0.396,-0.011000000000000001,1.54,-78.55199999999999,-52.185,-0.305
-0.287,-0.213,1.514,-76.172,-53.406000000000006,3.235
-0.149,-0.255,1.2,-71.045,-41.382,16.663
-0.14300000000000002,-0.215,1.159,-59.937,-53.833,26.978
-0.128,-0.213,1.161,-46.753,-55.481,23.987
-0.08800000000000001,-0.284,1.145,-38.94,-43.762,14.892999999999999
-0.08800000000000001,-0.223,1.069,-32.532,-26.55,12.145999999999999
-0.055999999999999994,-0.217,1.064,-30.151,-11.107999999999999,6.775
-0.067,-0.127,1.044,-26.671999999999997,3.235,0.9159999999999999
-0.273,-0.436,1.374,-28.625,5.92,-4.7
-0.209,-0.261,1.982,-18.982,-16.541,1.831
-0.069,-0.161,2.032,-2.991,-11.597000000000001,5.371
0.032,-0.21600000000000003,1.59,2.38,16.663,-6.348
-0.03,-0.17,1.1640000000000001,3.052,30.64,-13.306
-0.079,-0.168,0.988,-1.526,19.47,-13.915999999999999
-0.047,-0.147,0.8490000000000001,0.183,2.625,-6.957999999999999
-0.012,-0.132,0.76,4.5169999999999995,-11.536,-2.075
-0.033,-0.168,0.7090000000000001,6.531000000000001,-18.677,-2.991
-0.036000000000000004,-0.20600000000000002,0.695,2.625,-15.380999999999998,-5.92
-0.077,-0.213,0.7609999999999999,-0.5489999999999999,-8.606,-7.935
-0.14,-0.20800000000000002,0.877,-2.0140000000000002,-2.075,-10.315
-0.182,-0.218,0.9670000000000001,-2.625,3.7230000000000003,-12.755999999999998
-0.21100000000000002,-0.23800000000000002,1.0490000000000002,-2.563,5.92,-13.794
-0.209,-0.22,1.071,-2.0140000000000002,4.883,-13.123
0.085,-0.31,2.218,37.109,71.594,80.994
0.205,-0.32899999999999996,2.372,53.772,70.618,74.402
0.255,-0.32899999999999996,2.531,78.979,57.373000000000005,60.913000000000004
0.257,-0.22899999999999998,2.5780000000000003,109.68,49.011,47.24100000000001
0.26,-0.14800000000000002,2.577,141.235,45.593,35.217
0.318,-0.11800000000000001,2.478,163.025,43.457,25.085
0.366,-0.113,2.303,175.354,40.833,12.512
0.36200000000000004,-0.076,2.123,192.139,37.903,-0.183
0.337,0.057999999999999996,1.9169999999999998,210.815,33.446999999999996,-9.277000000000001
0.31,0.08900000000000001,1.74,226.929,22.278000000000002,-14.892999999999999
0.321,0.084,1.5959999999999999,237.183,7.263,-18.25
0.385,0.059000000000000004,1.3940000000000001,241.455,-5.249,-22.4
0.39299999999999996,0.083,1.229,244.69,-16.235,-30.212
0.349,0.158,1.093,252.44099999999997,-23.01,-40.283
0.303,0.076,1.001,260.01,-30.884,-48.461999999999996
0.304,0.064,0.9,258.85,-34.546,-54.199
0.295,0.055999999999999994,0.8390000000000001,253.296,-30.029,-57.19
0.262,-0.005,0.8,240.417,-32.775999999999996,-57.19
0.264,-0.16899999999999998,0.728,225.83,-46.631,-55.236999999999995
0.276,-0.18600000000000003,0.66,221.985,-57.983000000000004,-53.101000000000006
0.266,-0.179,0.56,226.074,-63.843,-58.533
0.187,-0.069,0.47600000000000003,226.50099999999998,-63.782,-69.336
0.077,-0.031,0.447,222.9,-64.63600000000001,-74.524
0.016,-0.107,0.441,217.468,-69.458,-69.946
-0.013000000000000001,-0.11,0.415,210.87599999999998,-66.528,-65.613
-0.006999999999999999,-0.16899999999999998,0.242,211.91400000000002,-52.49,-69.153
-0.035,-0.226,0.132,211.12099999999998,-43.701,-75.684
-0.106,-0.17600000000000002,0.01,203.003,-40.161,-80.322
-0.21600000000000003,-0.115,-0.01,196.655,-41.565,-79.102
-0.266,-0.17600000000000002,0.024,194.21400000000003,-41.87,-71.777
-0.212,-0.306,-0.095,185.12,-32.532,-70.313
-0.231,-0.385,-0.183,175.354,-25.94,-76.355
-0.335,-0.35200000000000004,-0.138,174.622,-28.259,-79.59
-0.384,-0.37200000000000005,-0.168,176.08599999999998,-29.053,-78.979
-0.402,-0.41200000000000003,-0.382,179.44299999999998,-23.743000000000002,-79.65100000000001
-0.449,-0.447,-0.63,185.425,-21.545,-83.49600000000001
-0.5379999999999999,-0.426,-0.865,188.354,-29.053,-88.37899999999999
-0.643,-0.32,-1.103,184.692,-43.03,-91.064
-0.7879999999999999,-0.239,-1.383,177.612,-64.514,-94.055
-0.9059999999999999,-0.22699999999999998,-1.7180000000000002,171.44799999999998,-91.736,-95.03200000000001
-1.0270000000000001,-0.19,-2.011,158.203,-124.023,-90.759
-1.127,-0.17300000000000001,-2.1959999999999997,128.47899999999998,-156.372,-80.139
-1.192,-0.124,-2.2319999999999998,86.609,-181.396,-60.059
-1.238,-0.172,-2.1590000000000003,47.302,-182.61700000000002,-33.875
-1.218,-0.3,-2.003,15.93,-147.278,-8.484
-1.093,-0.449,-1.775,-16.785,-82.09200000000001,12.267999999999999
-0.873,-0.504,-1.496,-45.776,-12.573,32.775999999999996
-0.687,-0.56,-1.165,-62.5,39.063,49.376999999999995
-0.522,-0.685,-0.9109999999999999,-75.867,72.266,57.556000000000004
-0.379,-0.789,-0.6679999999999999,-87.95200000000001,86.365,61.278999999999996
-0.259,-0.8390000000000001,-0.485,-97.412,86.182,60.974
-0.195,-0.862,-0.361,-101.929,74.46300000000001,53.04
-0.18100000000000002,-0.8809999999999999,-0.314,-99.854,57.068000000000005,40.344
-0.193,-0.867,-0.34700000000000003,-94.971,37.231,27.465999999999998
-0.23399999999999999,-0.851,-0.405,-94.36,15.137,15.198
-0.275,-0.823,-0.475,-98.999,-6.409,5.249
-0.32799999999999996,-0.718,-0.489,-106.995,-23.682,-1.2819999999999998
-0.4,-0.5920000000000001,-0.47600000000000003,-115.906,-32.593,-4.638999999999999
-0.44299999999999995,-0.5429999999999999,-0.47600000000000003,-123.90100000000001,-32.349000000000004,-3.418
-0.451,-0.544,-0.45299999999999996,-132.507,-24.535999999999998,0.7929999999999999
-0.405,-0.539,-0.406,-142.761,-10.132,4.0280000000000005
-0.374,-0.5529999999999999,-0.33299999999999996,-153.259,6.897,4.15
-0.336,-0.597,-0.281,-161.438,24.658,0.7929999999999999
-0.31,-0.573,-0.214,-166.44299999999998,40.894,-3.6010000000000004
-0.293,-0.526,-0.135,-169.373,56.519,-8.911
-0.293,-0.41600000000000004,-0.047,-171.44799999999998,70.068,-13.306
-0.361,-0.239,0.099,-169.8,79.468,-13.062000000000001
-0.414,-0.256,0.155,-165.16099999999997,84.77799999999999,-5.31
-0.39399999999999996,-0.31,0.183,-163.513,83.435,8.606
-0.324,-0.373,0.201,-168.945,74.46300000000001,20.63
-0.268,-0.40700000000000003,0.231,-178.28400000000002,59.875,24.963
-0.27,-0.389,0.306,-187.07299999999998,45.593,22.4
-0.319,-0.36,0.376,-190.735,40.833,17.151
-0.321,-0.36200000000000004,0.41100000000000003,-190.735,47.119,13.062000000000001
-0.312,-0.386,0.462,-190.979,56.519,9.094
-0.29100000000000004,-0.386,0.507,-192.627,68.42,3.784
-0.259,-0.375,0.583,-192.38299999999998,81.36,-0.977
-0.23,-0.34,0.654,-189.514,96.008,-3.845
-0.22,-0.175,0.73,-185.91299999999998,110.229,-2.991
-0.255,0.008,0.882,-181.15200000000002,117.31,5.797999999999999
-0.271,0.034,0.992,-177.24599999999998,112.366,25.695999999999998
-0.214,-0.032,1.052,-180.60299999999998,93.87200000000001,49.193999999999996
-0.133,-0.113,1.124,-186.157,68.97,65.063
-0.042,-0.19699999999999998,1.208,-188.049,46.692,70.49600000000001
0.012,-0.21100000000000002,1.2329999999999999,-184.50900000000001,36.133,68.90899999999999
0.086,-0.203,1.245,-173.523,38.147,61.707
0.124,-0.207,1.32,-159.546,50.964,53.04
0.20600000000000002,-0.289,1.3730000000000002,-149.78,74.768,44.495
0.225,-0.413,1.3630000000000002,-150.208,101.99,35.645
0.231,-0.539,1.3780000000000001,-157.10399999999998,126.709,28.748
0.321,-0.5,1.4280000000000002,-168.762,149.536,30.518
0.392,-0.371,1.6059999999999999,-180.847,170.044,35.889
0.439,-0.276,1.714,-192.38299999999998,194.21400000000003,41.016000000000005
0.45299999999999996,-0.207,1.7819999999999998,-198.303,205.38299999999998,47.791000000000004
0.659,-0.201,1.9140000000000001,-197.815,201.965,52.856
0.452,0.066,1.925,-195.19,220.764,52.063
0.552,0.501,1.3419999999999999,-194.58,166.138,28.015
0.8340000000000001,0.092,1.35,-146.118,83.191,15.32
0.532,0.005,1.5219999999999998,-98.389,12.39,22.461
0.331,-0.127,1.7919999999999998,-77.271,-11.169,27.1
0.156,-0.091,1.6119999999999999,-78.125,4.883,18.738
0.363,-0.18899999999999997,1.396,-85.93799999999999,1.587,4.272
0.486,-0.266,1.287,-84.77799999999999,-29.296999999999997,5.797999999999999
0.474,-0.28300000000000003,1.4780000000000002,-82.336,-72.083,27.160999999999998
0.18600000000000003,-0.14800000000000002,1.507,-85.815,-87.34100000000001,49.316
0.034,0.021,1.526,-88.257,-91.431,45.532
0.052000000000000005,0.038,1.5730000000000002,-86.792,-65.063,46.448
0.152,0.042,1.5119999999999998,-76.111,-25.94,43.335
0.051,0.14300000000000002,1.4040000000000001,-50.842,7.568,34.851
0.045,0.111,1.266,-29.236,44.861000000000004,31.25
0.10300000000000001,0.049,1.063,-14.892999999999999,76.538,27.71
0.113,-0.028999999999999998,0.8490000000000001,-14.038,97.656,20.691
0.132,-0.08800000000000001,0.718,-18.066,111.145,16.785
0.157,-0.11199999999999999,0.6579999999999999,-25.085,112.976,15.137
0.18100000000000002,-0.11,0.636,-32.166,104.37,13.123
0.24100000000000002,-0.10099999999999999,0.662,-39.063,90.94200000000001,10.925
0.292,-0.09,0.706,-44.617,71.899,8.85
0.306,-0.09,0.752,-48.096000000000004,51.147,9.521
0.244,-0.10099999999999999,0.7609999999999999,-53.162,31.494,13.610999999999999
-0.525,-0.968,1.432,17.517,76.05,-25.391
-0.614,-1.17,1.3359999999999999,19.226,93.20100000000001,-21.79
-0.6940000000000001,-1.35,1.238,24.17,96.68,-11.841
-0.745,-1.452,1.14,29.114,90.637,4.638999999999999
-0.764,-1.587,1.044,31.372,82.947,26.366999999999997
-0.7190000000000001,-1.646,0.953,27.954,77.209,45.227
-0.677,-1.6380000000000001,0.846,19.104,71.899,62.622
-0.672,-1.5659999999999998,0.711,6.165,65.613,82.458
-0.6759999999999999,-1.442,0.613,-7.568,56.152,106.445
-0.6409999999999999,-1.254,0.542,-17.578,45.105,133.179
-0.61,-1.043,0.49,-22.949,32.471,161.804
-0.5489999999999999,-0.7809999999999999,0.406,-26.428,22.888,189.697
-0.41700000000000004,-0.375,0.26899999999999996,-29.236,18.799,213.135
-0.299,0.18899999999999997,0.114,-31.799,20.386,226.37900000000002
-0.278,0.653,0.039,-35.095,21.179000000000002,225.58599999999998
-0.22899999999999998,1.01,0.024,-42.48,16.846,215.576
-0.12300000000000001,1.275,0.027000000000000003,-49.193999999999996,11.719000000000001,205.688
-0.10800000000000001,1.465,0.042,-47.24100000000001,11.536,198.669
-0.192,1.607,0.03,-37.537,16.174,189.08700000000002
-0.20800000000000002,1.696,-0.064,-29.906999999999996,25.635,180.237
-0.185,1.835,-0.111,-34.912,25.451999999999998,183.105
-0.001,2.116,0.008,-52.611999999999995,5.553999999999999,203.43
0.242,2.414,0.33399999999999996,-76.965,-29.358,223.81599999999997
0.449,2.6430000000000002,0.851,-102.96600000000001,-69.824,219.727
0.795,2.7760000000000002,1.453,-119.507,-85.815,193.97
1.105,2.7510000000000003,1.9580000000000002,-114.99,-66.77199999999999,160.217
1.331,2.668,2.1069999999999998,-88.135,-25.33,121.948
1.386,2.444,1.955,-41.443000000000005,23.987,81.543
1.225,2.109,1.614,7.385,53.711000000000006,38.33
1.002,1.791,1.274,45.288000000000004,56.519,-4.272
0.789,1.5019999999999998,1.0,71.533,39.917,-36.743
0.537,1.249,0.8190000000000001,87.708,11.169,-57.373000000000005
0.37200000000000005,1.131,0.6970000000000001,93.384,-17.029,-74.097
0.235,1.07,0.618,91.492,-36.376999999999995,-85.022
0.162,1.018,0.562,85.205,-43.518,-92.346
0.134,0.948,0.531,77.393,-35.339,-96.31299999999999
0.11800000000000001,0.922,0.51,65.979,-20.752,-97.9
0.078,0.92,0.514,50.354,-8.179,-99.54799999999999
0.006,0.9420000000000001,0.555,37.17,-1.3430000000000002,-99.304
0.011000000000000001,1.006,0.639,30.761999999999997,1.465,-95.459
0.078,1.0390000000000001,0.737,32.654,1.709,-92.896
0.111,1.058,0.818,44.25,-2.563,-94.238
0.11900000000000001,0.997,0.853,61.583999999999996,-8.362,-97.53399999999999
0.07200000000000001,0.9059999999999999,0.835,79.834,-9.705,-100.037
0.027999999999999997,0.8270000000000001,0.76,93.93299999999999,-6.042000000000001,-101.257
0.008,0.753,0.674,100.586,-1.892,-100.464
0.015,0.647,0.61,99.73100000000001,-1.526,-99.976
0.002,0.5329999999999999,0.581,92.22399999999999,-5.188,-100.708
0.026000000000000002,0.4,0.585,79.285,-11.292,-102.295
0.035,0.245,0.573,61.89,-14.709000000000001,-103.39399999999999
0.044000000000000004,0.066,0.5589999999999999,42.542,-17.151,-104.736
0.055999999999999994,-0.10800000000000001,0.569,24.719,-23.375999999999998,-105.774
0.055,-0.237,0.595,10.742,-32.471,-103.76
0.002,-0.28600000000000003,0.664,1.3430000000000002,-42.786,-97.16799999999999
-0.057999999999999996,-0.316,0.779,-3.662,-54.626000000000005,-87.036
-0.10099999999999999,-0.37200000000000005,0.863,-2.6860000000000004,-62.073,-76.172
-0.158,-0.374,0.9209999999999999,0.732,-66.04,-65.063
-0.21100000000000002,-0.336,0.9790000000000001,0.8540000000000001,-71.594,-53.711000000000006
-0.264,-0.29,1.065,-3.662,-74.036,-41.809
-0.25,-0.298,1.138,-13.062000000000001,-67.505,-30.64
-0.187,-0.331,1.18,-23.499000000000002,-49.193999999999996,-21.666999999999998
-0.121,-0.366,1.2309999999999999,-32.654,-25.695999999999998,-21.79
-0.106,-0.406,1.236,-37.17,0.366,-31.006
-0.12300000000000001,-0.47,1.216,-33.936,25.513,-43.457
-0.175,-0.514,1.195,-24.78,46.448,-51.636
-0.179,-0.594,1.177,-15.869000000000002,56.03,-55.968999999999994
-0.203,-0.6609999999999999,1.166,-11.536,54.993,-60.974
-0.265,-0.682,1.163,-9.705,48.828,-65.186
-0.326,-0.716,1.182,-5.492999999999999,43.88399999999999,-64.02600000000001
-0.369,-0.763,1.1909999999999998,-0.6709999999999999,40.588,-56.03
-0.392,-0.81,1.173,1.526,38.147,-46.997
-0.413,-0.8490000000000001,1.151,1.3430000000000002,36.376999999999995,-39.49
-0.42200000000000004,-0.847,1.121,-0.183,36.071999999999996,-30.823
-0.40399999999999997,-0.836,1.083,-3.052,37.109,-20.264
-0.364,-0.7829999999999999,1.037,-7.08,38.635,-8.118
-0.29100000000000004,-0.732,1.001,-12.207,38.635,2.8080000000000003
-0.209,-0.667,0.971,-17.456,36.499,13.915999999999999
-0.124,-0.5539999999999999,0.9540000000000001,-23.01,30.396,24.901999999999997
-0.018000000000000002,-0.414,0.9440000000000001,-27.344,20.874000000000002,33.936
0.073,-0.294,0.987,-26.916999999999998,10.193,38.574
0.114,-0.198,1.043,-20.752,0.183,38.757
0.153,-0.142,1.044,-10.193,-5.066,35.156
0.182,-0.115,1.012,2.38,-4.333,29.48
0.179,-0.111,0.981,12.695,-3.845,24.596999999999998
0.155,-0.10099999999999999,0.958,17.761,-4.638999999999999,23.987
0.168,-0.092,0.897,19.226,-4.578,27.649
0.198,-0.07200000000000001,0.868,16.174,-7.263,31.616
0.22,-0.042,0.887,8.423,-14.038,33.446999999999996
0.231,-0.008,0.89,2.258,-18.005,35.4
0.257,0.039,0.892,-0.732,-18.982,36.865
0.27399999999999997,0.084,0.9259999999999999,-2.0140000000000002,-20.752,34.607
0.3,0.126,0.94,-1.099,-22.095,30.518
0.341,0.171,0.946,1.465,-20.874000000000002,25.818
0.35600000000000004,0.19,0.958,6.104,-19.897000000000002,18.188
0.33899999999999997,0.168,0.958,13.306,-19.653,8.667
0.31,0.138,0.946,20.63,-18.799,0.61
0.289,0.09699999999999999,0.92,26.123,-15.564,-3.784
0.267,0.073,0.904,27.893,-13.915999999999999,-7.324
0.243,0.047,0.873,26.428,-12.512,-9.583
0.24100000000000002,0.016,0.833,22.888,-8.545,-8.911
0.23399999999999999,-0.015,0.8109999999999999,17.09,-4.822,-6.348
0.228,-0.051,0.809,10.62,-3.418,-3.3569999999999998
0.231,-0.063,0.8440000000000001,4.578,-3.3569999999999998,-1.77
0.21,-0.064,0.883,0.122,-5.92,-1.6480000000000001
0.195,-0.043,0.9179999999999999,-3.418,-11.719000000000001,-1.526
0.195,-0.006,0.9590000000000001,-5.797999999999999,-20.996,-1.587
0.198,0.016,0.9990000000000001,-6.47,-28.503,-0.9159999999999999
0.187,0.04,1.043,-7.202000000000001,-34.241,-0.61
0.19399999999999998,0.091,1.078,-7.324,-37.476,-1.953
0.204,0.127,1.129,-4.15,-38.33,-5.615
0.182,0.141,1.175,1.6480000000000001,-38.147,-11.292
0.156,0.138,1.173,8.301,-34.973,-15.747
0.146,0.134,1.161,12.817,-27.649,-18.25
0.129,0.12,1.14,15.503,-18.311,-18.616
0.124,0.09300000000000001,1.112,16.479,-8.789,-17.456
0.135,0.081,1.083,16.052,-0.61,-15.075999999999999
0.14,0.068,1.047,16.785,5.188,-12.207
0.141,0.042,1.021,18.372,7.446000000000001,-9.888
0.152,0.02,1.002,18.982,6.531000000000001,-8.179
-0.285,-0.9940000000000001,1.311,-3.7230000000000003,18.25,9.033
-0.28,-1.056,1.2690000000000001,-0.183,20.447,15.564
-0.281,-1.111,1.207,3.7230000000000003,23.804000000000002,23.315
-0.28,-1.151,1.138,5.371,23.436999999999998,29.785
-0.307,-1.165,1.085,5.432,18.86,34.546
-0.35100000000000003,-1.156,1.051,4.395,13.610999999999999,39.611999999999995
-0.405,-1.15,1.002,4.761,14.526,44.983000000000004
-0.449,-1.147,0.9059999999999999,8.057,23.01,49.927
-0.48200000000000004,-1.145,0.787,9.46,33.02,57.129
-0.532,-1.117,0.665,7.751,38.025,67.993
-0.597,-1.038,0.53,5.615,37.537,81.726
-0.63,-0.919,0.384,4.0889999999999995,32.288000000000004,101.257
-0.65,-0.772,0.24,1.892,21.973000000000003,126.465
-0.6709999999999999,-0.52,0.109,-2.502,8.85,153.137
-0.659,-0.192,-0.034,-10.254000000000001,-3.784,177.49
-0.617,0.257,-0.217,-21.912,-12.512,199.34099999999998
-0.631,0.746,-0.32,-40.161,-22.278000000000002,217.52900000000002
-0.636,1.216,-0.257,-68.42,-36.865,227.234
-0.534,1.598,-0.075,-98.572,-49.011,226.99
-0.461,2.0540000000000003,0.095,-116.699,-49.622,221.00799999999998
-0.36700000000000005,2.4530000000000003,0.23800000000000002,-125.977,-40.588,213.37900000000002
-0.15,2.725,0.38799999999999996,-133.179,-25.94,206.726
0.212,2.915,0.65,-143.67700000000002,-10.559000000000001,201.90400000000002
0.49200000000000005,2.97,1.03,-153.015,-3.418,190.125
0.731,2.989,1.4340000000000002,-151.306,6.348,168.518
0.935,2.928,1.736,-135.132,21.545,143.555
1.1440000000000001,2.7880000000000003,1.864,-108.704,36.865,114.197
1.281,2.591,1.78,-70.557,53.101000000000006,79.468
1.2570000000000001,2.229,1.515,-25.33,58.35,38.574
1.08,1.906,1.216,18.738,53.894,-3.4789999999999996
0.873,1.643,0.946,52.856,44.495,-40.1
0.672,1.412,0.747,75.256,27.588,-64.941
0.493,1.2819999999999998,0.632,85.205,2.258,-82.214
0.368,1.232,0.581,83.86200000000001,-26.55,-98.633
0.233,1.147,0.561,76.538,-45.166000000000004,-109.49700000000001
0.152,1.0490000000000002,0.568,67.26100000000001,-51.27,-116.15
0.113,1.016,0.586,57.983000000000004,-48.766999999999996,-117.98100000000001
0.094,1.034,0.579,49.438,-43.091,-114.014
0.099,1.117,0.561,41.992,-41.321000000000005,-109.19200000000001
0.083,1.168,0.635,38.086,-49.193999999999996,-110.779
0.049,1.175,0.7240000000000001,42.968999999999994,-66.16199999999999,-116.211
0.040999999999999995,1.131,0.7759999999999999,57.556000000000004,-81.78699999999999,-115.051
-0.001,1.061,0.802,75.623,-89.96600000000001,-107.666
0.011000000000000001,1.0190000000000001,0.7959999999999999,85.205,-84.53399999999999,-102.417
0.036000000000000004,0.953,0.764,90.698,-74.097,-104.24799999999999
0.033,0.8390000000000001,0.741,92.46799999999999,-65.979,-109.25299999999999
-0.013000000000000001,0.6509999999999999,0.6970000000000001,92.102,-52.551,-113.586
-0.038,0.43799999999999994,0.619,90.149,-32.043,-117.126
-0.078,0.245,0.569,84.229,-19.531,-122.49799999999999
-0.102,0.06,0.539,74.46300000000001,-18.127,-125.977
-0.11900000000000001,-0.099,0.542,62.988,-22.888,-126.648
-0.146,-0.185,0.563,48.278999999999996,-32.836999999999996,-126.831
-0.18,-0.261,0.622,31.555,-43.701,-127.197
-0.245,-0.359,0.759,16.174,-49.988,-126.038
-0.32899999999999996,-0.423,0.9159999999999999,4.15,-51.758,-122.62
-0.39899999999999997,-0.47100000000000003,1.016,2.136,-47.668,-118.164
-0.45,-0.5379999999999999,1.094,10.559000000000001,-38.635,-111.26700000000001
-0.488,-0.578,1.157,20.569000000000003,-27.283,-101.868
-0.48100000000000004,-0.645,1.187,26.061999999999998,-13.489,-91.675
-0.469,-0.726,1.188,28.32,-0.244,-82.581
-0.479,-0.757,1.1540000000000001,29.175,8.301,-76.172
-0.488,-0.765,1.145,28.32,11.536,-69.763
-0.48100000000000004,-0.775,1.151,28.503,13.367,-64.27
-0.479,-0.8059999999999999,1.149,29.785,16.907,-58.288999999999994
-0.47600000000000003,-0.8190000000000001,1.1320000000000001,31.555,24.048000000000002,-51.453
-0.457,-0.833,1.095,33.751999999999995,33.875,-45.41
-0.441,-0.853,1.063,35.889,43.091,-40.283
-0.41,-0.872,1.046,36.865,50.476000000000006,-33.691
-0.306,-0.8809999999999999,0.977,37.964,57.251000000000005,-24.109
-0.096,-0.914,0.828,41.626000000000005,64.148,-11.841
0.14800000000000002,-0.897,0.655,43.57899999999999,66.16199999999999,-0.977
0.33399999999999996,-0.812,0.522,35.217,54.382,0.61
0.364,-0.71,0.509,16.113,26.916999999999998,-10.498
0.20600000000000002,-0.57,0.644,-9.705,-13.794,-30.029
-0.057999999999999996,-0.45,0.8390000000000001,-32.471,-57.922,-47.058
